Data from Subt2_15-52-38-809.txt Node
Date: Wed Apr 21 15:52:38 CEST 2021
User: au643642
Spectrometer: FLMS05507
Trigger mode: 0
Integration Time (sec): 2,300000E-2
Scans to average: 5
Electric dark correction enabled: true
Nonlinearity correction enabled: false
Boxcar width: 0
XAxis mode: Wavelengths
Number of Pixels in Spectrum: 2048
>>>>>Begin Spectral Data<<<<<
188,96	24,96
189,424	24,96
189,887	24,96
190,351	94,24
190,815	71,3
191,279	18,4
191,742	31,98
192,206	-10,15
192,669	-63,05
193,133	17
193,596	-18,11
194,06	-34,49
194,523	-40,58
194,987	23,55
195,45	123,26
195,913	22,62
196,376	-6,88
196,84	-10,62
197,303	-35,9
197,766	-42,92
198,229	25,89
198,692	-2,66
199,155	-74,28
199,618	-54,62
200,081	35,25
200,543	23,08
201,006	-5,94
201,469	124,66
201,932	14,19
202,394	52,11
202,857	-27,47
203,32	-47,13
203,782	-3,6
204,245	19,81
204,707	15,13
205,169	-22,32
205,632	-15,77
206,094	30,11
206,556	-25,13
207,019	53,98
207,481	-23,26
207,943	-12,02
208,405	2,49
208,867	-12,96
209,329	80,66
209,791	-1,26
210,253	-7,34
210,715	34,32
211,177	-61,18
211,639	26,36
212,1	72,23
212,562	-3,13
213,024	-20,45
213,485	2,02
213,947	63,81
214,408	-25,13
214,87	-37,3
215,331	-10,62
215,793	3,42
216,254	97,98
216,715	45,55
217,177	-17,64
217,638	9,04
218,099	7,17
218,56	-9,68
219,021	-20,92
219,482	7,17
219,944	-105,18
220,404	-68,67
220,865	46,96
221,326	106,41
221,787	9,04
222,248	55,38
222,709	30,57
223,169	-17,17
223,63	-57,43
224,091	67,55
224,551	60,53
225,012	47,43
225,472	-9,22
225,933	-1,73
226,393	-22,32
226,854	64,28
227,314	29,17
227,774	70,83
228,234	-3,13
228,695	69,43
229,155	6,23
229,615	11,85
230,075	18,4
230,535	27,76
230,995	45,08
231,455	91,43
231,915	31,51
232,375	-59,3
232,834	42,74
233,294	-37,77
233,754	44,15
234,214	50,7
234,673	4,36
235,133	-29,34
235,592	-36,83
236,052	23,55
236,511	31,98
236,971	-59,77
237,43	-22,79
237,889	14,19
238,349	-34,03
238,808	-57,43
239,267	48,36
239,726	8,1
240,185	53,51
240,644	20,27
241,103	16,06
241,562	-48,07
242,021	94,24
242,48	21,68
242,939	109,22
243,398	34,32
243,857	2,02
244,315	1,08
244,774	42,74
245,233	11,38
245,691	110,62
246,15	-6,41
246,608	81,6
247,067	47,89
247,525	32,91
247,983	-8,75
248,442	5,76
248,9	71,77
249,358	1,08
249,816	-19,98
250,274	17,93
250,733	17,47
251,191	-44,79
251,649	3,89
252,107	50,23
252,564	41,81
253,022	-15,3
253,48	37,13
253,938	-9,68
254,396	84,41
254,853	-11,56
255,311	62,4
255,769	17,47
256,226	-2,66
256,684	-12,49
257,141	4,36
257,599	17,47
258,056	11,38
258,513	46,49
258,971	-57,9
259,428	34,79
259,885	13,25
260,342	-8,28
260,799	-53,22
261,256	39,47
261,714	83,94
262,171	82,07
262,627	41,34
263,084	61,94
263,541	-49
263,998	33,38
264,455	-1,73
264,912	1,55
265,368	22,15
265,825	-76,62
266,281	51,64
266,738	26,83
267,194	9,04
267,651	-64,45
268,107	-37,3
268,564	-37,77
269,02	10,44
269,476	83
269,933	-6,41
270,389	-24,66
270,845	-42,45
271,301	68,02
271,757	-20,45
272,213	-11,09
272,669	68,02
273,125	-50,41
273,581	-4,07
274,037	24,49
274,492	70,83
274,948	-0,32
275,404	-23,73
275,86	15,59
276,315	56,32
276,771	5,3
277,226	-3,6
277,682	2,49
278,137	43,21
278,593	-9,68
279,048	-29,34
279,503	-1,73
279,958	-25,13
280,414	12,32
280,869	20,27
281,324	21,68
281,779	56,32
282,234	-7,34
282,689	-33,09
283,144	47,43
283,599	-11,09
284,054	-25,13
284,508	1,08
284,963	-40,58
285,418	-18,58
285,873	-29,34
286,327	-17,64
286,782	-7,81
287,236	46,02
287,691	26,36
288,145	20,74
288,6	-20,45
289,054	73,64
289,508	12,79
289,963	42,28
290,417	2,95
290,871	91,9
291,325	55,85
291,779	3,42
292,233	2,02
292,687	2,95
293,141	-5,47
293,595	61,47
294,049	58,19
294,503	47,89
294,957	52,57
295,41	81,13
295,864	53,51
296,318	62,87
296,771	61,94
297,225	-2,66
297,678	16,53
298,132	22,62
298,585	73,64
299,039	-34,49
299,492	3,89
299,945	37,13
300,398	54,45
300,852	40,4
301,305	39,47
301,758	60,06
302,211	24,02
302,664	46,02
303,117	56,32
303,57	-2,66
304,023	-8,75
304,476	-1,26
304,928	-10,15
305,381	25,42
305,834	-5,94
306,286	-19,98
306,739	18,87
307,192	78,32
307,644	14,19
308,097	61,47
308,549	-45,73
309,001	25,42
309,454	13,72
309,906	-24,66
310,358	80,19
310,81	-3,13
311,263	3,89
311,715	90,49
312,167	17
312,619	-17,17
313,071	1,55
313,523	-38,24
313,975	17
314,426	68,49
314,878	-18,11
315,33	-13,9
315,782	5,3
316,233	22,62
316,685	-20,92
317,136	31,51
317,588	44,15
318,039	116,24
318,491	374,63
318,942	904,06
319,393	1356,25
319,845	1441,92
320,296	1211,61
320,747	705,58
321,198	181,77
321,649	42,74
322,101	27,3
322,552	39,47
323,003	61,47
323,453	-6,88
323,904	-4,53
324,355	25,42
324,806	16,06
325,257	11,85
325,707	128,41
326,158	-20,45
326,609	-31,69
327,059	44,62
327,51	69,89
327,96	-2,66
328,411	-23,26
328,861	-27
329,311	11,38
329,762	18,4
330,212	2,95
330,662	79,26
331,112	-16,24
331,562	-59,77
332,012	16,06
332,462	-33,09
332,912	68,96
333,362	-27,94
333,812	16,53
334,262	-31,69
334,712	17
335,161	1,08
335,611	14,66
336,061	31,51
336,51	-20,45
336,96	24,49
337,409	50,7
337,859	9,98
338,308	-33,56
338,758	74,11
339,207	31,51
339,656	13,25
340,105	-10,62
340,555	81,6
341,004	-15,3
341,453	-39,64
341,902	-21,39
342,351	80,19
342,8	-40,11
343,249	-22,79
343,698	-21,85
344,146	43,21
344,595	65,21
345,044	59,13
345,493	49,77
345,941	46,02
346,39	95,17
346,838	48,83
347,287	13,25
347,735	-13,9
348,184	-3,13
348,632	-5
349,08	5,3
349,529	12,79
349,977	65,68
350,425	-38,24
350,873	-75,69
351,321	57,72
351,769	-60,24
352,217	48,36
352,665	27,3
353,113	14,19
353,561	12,79
354,009	15,59
354,456	47,43
354,904	131,22
355,352	19,34
355,799	-33,56
356,247	3,89
356,694	-61,18
357,142	16,53
357,589	5,76
358,037	9,51
358,484	42,28
358,931	40,4
359,379	8,1
359,826	5,76
360,273	71,3
360,72	146,2
361,167	211,73
361,614	209,86
362,061	246,37
362,508	116,24
362,955	122,79
363,402	120,45
363,848	87,21
364,295	114,36
364,742	19,81
365,188	103,6
365,635	2,95
366,082	54,91
366,528	48,36
366,975	1,08
367,421	2,49
367,867	-33,56
368,314	21,68
368,76	59,6
369,206	91,9
369,652	80,19
370,098	145,73
370,545	112,49
370,991	215,94
371,437	140,11
371,882	99,85
372,328	99,85
372,774	-3,13
373,22	131,22
373,666	60,53
374,111	89,55
374,557	26,36
375,003	26,36
375,448	-9,68
375,894	87,21
376,339	58,66
376,785	52,11
377,23	127,94
377,675	61,94
378,121	30,57
378,566	13,72
379,011	6,23
379,456	17
379,901	53,98
380,346	43,68
380,791	136,37
381,236	176,62
381,681	407,4
382,126	542,68
382,571	643,79
383,016	436,42
383,461	303,01
383,905	116,7
384,35	50,23
384,794	120,92
385,239	36,19
385,683	71,77
386,128	161,18
386,572	221,56
387,017	422,38
387,461	735,07
387,905	2389,83
388,349	9227,01
388,794	19563,28
389,238	23374,61
389,682	19075,04
390,126	10999,26
390,57	6545,22
391,014	3525,46
391,457	1688,14
391,901	580,13
392,345	210,33
392,789	187,86
393,233	182,24
393,676	164,45
394,12	102,19
394,563	98,45
395,007	106,41
395,45	194,41
395,894	617,58
396,337	1248,59
396,78	1541,15
397,224	1321,61
397,667	804,82
398,11	471,06
398,553	383,53
398,996	207,05
399,439	169,13
399,882	95,64
400,325	126,07
400,768	228,11
401,211	212,67
401,654	262,29
402,096	935,89
402,539	1849,17
402,982	2217,57
403,424	1817,81
403,867	1074,92
404,309	648,94
404,752	372,29
405,194	153,69
405,637	103,13
406,079	123,26
406,521	79,72
406,963	60,53
407,406	94,24
407,848	62,4
408,29	97,04
408,732	108,75
409,174	22,62
409,616	59,13
410,058	96,58
410,499	47,43
410,941	112,02
411,383	206,11
411,825	351,69
412,266	421,91
412,708	431,74
413,15	288,97
413,591	325,48
414,033	317,52
414,474	287,1
414,915	348,89
415,357	199,09
415,798	133,56
416,239	190,67
416,68	111,56
417,121	151,34
417,563	52,57
418,004	121,39
418,445	125,6
418,885	118,11
419,326	95,64
419,767	101,73
420,208	56,32
420,649	112,49
421,089	111,09
421,53	89,55
421,971	66,15
422,411	127
422,852	68,96
423,292	56,79
423,733	72,7
424,173	97,98
424,613	65,21
425,054	102,19
425,494	33,38
425,934	60,53
426,374	46,96
426,814	58,66
427,254	84,41
427,694	88,15
428,134	21,68
428,574	22,15
429,014	51,64
429,454	8,57
429,893	90,49
430,333	45,55
430,773	9,04
431,212	39,47
431,652	-1,73
432,091	16,53
432,531	-5
432,97	46,49
433,41	43,68
433,849	59,6
434,288	52,11
434,727	37,59
435,167	-70,54
435,606	-165,1
436,045	-250,29
436,484	-241,87
436,923	-154,33
437,362	-7,81
437,801	84,41
438,239	355,91
438,678	620,39
439,117	685,92
439,556	451,87
439,994	369,95
440,433	278,2
440,871	149
441,31	57,26
441,748	69,89
442,187	38,53
442,625	30,11
443,063	105,47
443,502	169,13
443,94	186,92
444,378	175,22
444,816	145,73
445,254	153,22
445,692	237,94
446,13	1175,56
446,568	4611,94
447,006	8338,54
447,444	9275,22
447,881	7575,52
448,319	4782,8
448,757	3161,74
449,194	1911,9
449,632	1080,54
450,07	350,29
450,507	122,79
450,944	46,49
451,382	-27
451,819	-154,8
452,256	-63,05
452,694	-63,98
453,131	-97,22
453,568	-53,22
454,005	-36,37
454,442	-22,79
454,879	-31,22
455,316	-61,18
455,753	-91,13
456,19	-51,35
456,627	-99,09
457,063	-70,07
457,5	-82,24
457,937	-97,69
458,373	-122,97
458,81	-76,62
459,246	-95,35
459,683	-86,45
460,119	-111,73
460,556	-34,49
460,992	-79,9
461,428	-84,11
461,864	-17,17
462,301	-5,47
462,737	-108,45
463,173	-115,94
463,609	-43,86
464,045	-75,69
464,481	-75,69
464,917	-92,54
465,352	-138,88
465,788	-51,35
466,224	-114,07
466,66	-125,31
467,095	-195,05
467,531	-67,26
467,966	-71,01
468,402	-120,16
468,837	-92,54
469,273	-57,43
469,708	-61,64
470,143	33,38
470,578	785,16
471,014	1957,77
471,449	2561,63
471,884	2263,91
472,319	1477,02
472,754	1004,7
473,189	659,71
473,624	353,57
474,059	124,19
474,493	-43,39
474,928	-88,79
475,363	-41,52
475,797	-72,41
476,232	-111,26
476,667	-90,67
477,101	-121,09
477,536	-91,13
477,97	16,53
478,404	-28,41
478,839	-79,43
479,273	-66,32
479,707	-31,69
480,141	-65,86
480,575	-111,73
481,009	-66,32
481,444	-90,67
481,877	-222,67
482,311	-120,16
482,745	-99,09
483,179	-59,3
483,613	-24,2
484,047	-101,43
484,48	-100,96
484,914	-43,39
485,347	-65,86
485,781	-138,88
486,214	-88,79
486,648	-151,05
487,081	-229,23
487,515	-211,44
487,948	-187,56
488,381	-177,73
488,814	-140,29
489,247	-182,42
489,68	-68,2
490,113	-106,58
490,546	-82,71
490,979	56,32
491,412	1702,18
491,845	4528,61
492,278	6379,04
492,711	5786,89
493,143	3858,29
493,576	2490,48
494,009	1634,78
494,441	971
494,874	548,3
495,306	144,32
495,738	84,41
496,171	97,04
496,603	93,77
497,035	89,55
497,467	99,85
497,9	83
498,332	102,66
498,764	96,58
499,196	171,01
499,628	230,92
500,06	332,5
500,491	2538,69
500,923	17353,35
501,355	32699,3
501,787	39318,34
502,218	29811,55
502,65	19434,55
503,081	13028,5
503,513	8012,74
503,944	4973,78
504,376	3517,5
504,807	2947,82
505,238	2532,14
505,67	1632,44
506,101	1234,54
506,532	770,65
506,963	540,81
507,394	352,16
507,825	300,2
508,256	180,84
508,687	248,71
509,118	259,95
509,549	246,84
509,979	151,34
510,41	185,05
510,841	244,97
511,271	204,24
511,702	200,03
512,132	193,01
512,563	141,98
512,993	211,26
513,424	207,52
513,854	172,88
514,284	229,99
514,714	157,9
515,145	214,54
515,575	183,18
516,005	180,84
516,435	222,5
516,865	222,97
517,295	207,99
517,724	260,41
518,154	275,39
518,584	193,47
519,014	210,79
519,443	229,05
519,873	174,75
520,303	154,15
520,732	207,99
521,161	262,75
521,591	284,76
522,02	289,44
522,45	161,64
522,879	265,09
523,308	199,09
523,737	259,01
524,166	247,77
524,595	201,43
525,024	248,71
525,453	283,82
525,882	204,24
526,311	266,97
526,74	229,05
527,169	319,4
527,597	173,81
528,026	190,2
528,455	277,73
528,883	294,12
529,312	226,24
529,74	303,48
530,168	221,09
530,597	290,84
531,025	256,67
531,453	249,65
531,882	224,37
532,31	301,14
532,738	184,58
533,166	305,82
533,594	250,12
534,022	178,96
534,45	301,14
534,878	294,12
535,305	289,9
535,733	240,75
536,161	233,26
536,588	265,56
537,016	344,67
537,444	241,69
537,871	264,16
538,299	258,54
538,726	281,95
539,153	218,28
539,581	281,48
540,008	203,77
540,435	278,67
540,862	269,78
541,289	253,39
541,716	237,94
542,143	178,96
542,57	176,62
542,997	196,75
543,424	190,67
543,851	281,48
544,277	244,97
544,704	290,37
545,131	189,26
545,557	261,82
545,984	187,86
546,41	201,9
546,837	156,03
547,263	248,24
547,69	151,34
548,116	197,22
548,542	251,52
548,968	234,2
549,394	228,58
549,82	255,73
550,246	180,84
550,672	242,16
551,098	249,18
551,524	289,9
551,95	267,44
552,376	217,82
552,802	300,67
553,227	284,29
553,653	191,13
554,078	207,99
554,504	256,67
554,929	232,8
555,355	236,07
555,78	305,35
556,206	226,24
556,631	255,73
557,056	278,67
557,481	229,05
557,906	308,16
558,331	295,99
558,756	203,3
559,181	292,25
559,606	272,12
560,031	253,86
560,456	283,35
560,881	247,31
561,305	265,56
561,73	197,69
562,155	290,37
562,579	295,52
563,004	278,2
563,428	257,14
563,853	204,24
564,277	224,84
564,701	270,24
565,126	306,76
565,55	282,41
565,974	182,24
566,398	231,39
566,822	295,52
567,246	303,01
567,67	226,71
568,094	248,24
568,518	209,39
568,941	207,99
569,365	237,48
569,789	208,92
570,213	261,35
570,636	270,71
571,06	228,58
571,483	264,63
571,907	298,33
572,33	179,43
572,753	265,09
573,177	225,77
573,6	184,11
574,023	243,09
574,446	239,82
574,869	227,65
575,292	185,98
575,715	240,75
576,138	232,8
576,561	271,18
576,984	155,09
577,407	209,86
577,829	152,28
578,252	261,82
578,675	251,99
579,097	200,5
579,52	244,97
579,942	228,58
580,364	230,92
580,787	195,82
581,209	232,33
581,631	258,54
582,054	194,88
582,476	259,48
582,898	170,07
583,32	246,37
583,742	247,77
584,164	243,56
584,586	248,71
585,008	299,27
585,429	280,07
585,851	303,01
586,273	726,65
586,694	7268,91
587,116	23914,34
587,538	33852,25
587,959	33301,76
588,38	20481,71
588,802	12718,15
589,223	7880,73
589,644	4821,65
590,066	2764,79
590,487	1444,26
590,908	773,46
591,329	447,19
591,75	352,63
592,171	302,54
592,592	306,76
593,013	244,5
593,434	256,67
593,854	249,18
594,275	224,37
594,696	249,65
595,116	231,86
595,537	220,16
595,957	213,14
596,378	208,45
596,798	279,14
597,218	137,77
597,639	244,5
598,059	143,86
598,479	311,44
598,899	205,65
599,319	245,43
599,739	216,88
600,159	171,01
600,579	162,11
600,999	256,2
601,419	118,58
601,839	215,94
602,259	278,2
602,678	256,2
603,098	210,79
603,517	177,09
603,937	235,14
604,356	228,58
604,776	188,33
605,195	195,35
605,614	219,69
606,034	193,47
606,453	119,05
606,872	145,26
607,291	218,28
607,71	168,66
608,129	166,79
608,548	215,48
608,967	133,56
609,386	219,69
609,805	129,81
610,223	150,41
610,642	220,62
611,061	201,43
611,479	172,41
611,898	158,83
612,316	213,6
612,735	149,47
613,153	106,87
613,571	92,36
613,99	161,64
614,408	107,81
614,826	189,26
615,244	195,82
615,662	187,39
616,08	228,58
616,498	185,52
616,916	163,52
617,334	185,98
617,752	210,33
618,169	84,41
618,587	131,22
619,005	159,3
619,422	244,03
619,84	109,22
620,257	164,92
620,675	155,56
621,092	124,19
621,509	226,24
621,927	113,43
622,344	119,98
622,761	129,34
623,178	171,94
623,595	98,92
624,012	129,34
624,429	137,77
624,846	125,13
625,263	107,34
625,68	136,37
626,097	119,05
626,513	204,24
626,93	141,51
627,346	115,3
627,763	140,58
628,179	61
628,596	150,88
629,012	125,6
629,429	83
629,845	163,98
630,261	39,94
630,677	145,26
631,093	161,64
631,509	163,98
631,925	88,15
632,341	8,57
632,757	148,07
633,173	121,39
633,589	97,51
634,005	77,38
634,42	78,79
634,836	198,62
635,252	149,94
635,667	159,3
636,083	171,47
636,498	106,41
636,913	130,75
637,329	135,43
637,744	134,49
638,159	186,92
638,574	110,62
638,99	125,13
639,405	152,75
639,82	207,05
640,235	145,26
640,65	122,79
641,064	83
641,479	138,71
641,894	161,64
642,309	140,58
642,723	70,83
643,138	97,51
643,552	82,53
643,967	87,68
644,381	90,02
644,796	53,04
645,21	98,92
645,624	85,34
646,038	58,19
646,453	155,56
646,867	63,34
647,281	149,47
647,695	111,56
648,109	102,66
648,523	113,43
648,936	137,3
649,35	156,49
649,764	75,51
650,178	97,51
650,591	185,05
651,005	78,79
651,418	109,68
651,832	71,3
652,245	89,09
652,659	40,87
653,072	91,43
653,485	169,13
653,898	194,88
654,312	157,9
654,725	101,73
655,138	88,15
655,551	140,58
655,964	106,87
656,377	156,49
656,789	137,3
657,202	59,6
657,615	14,19
658,028	109,68
658,44	117,17
658,853	147,13
659,265	71,3
659,678	88,15
660,09	130,28
660,503	59,6
660,915	100,32
661,327	112,02
661,739	89,09
662,152	76,92
662,564	149
662,976	106,87
663,388	68,02
663,8	36,19
664,211	90,49
664,623	164,92
665,035	160,24
665,447	139,17
665,858	149,94
666,27	354,04
666,682	3770,75
667,093	15091,92
667,505	23844,59
667,916	26335,39
668,327	18899,97
668,739	12867,94
669,15	9095,94
669,561	5899,23
669,972	3564,78
670,383	1763,04
670,794	806,23
671,205	424,72
671,616	186,45
672,027	169,13
672,438	148,07
672,849	150,88
673,259	152,75
673,67	162,11
674,08	211,73
674,491	103,6
674,901	112,96
675,312	135,43
675,722	129,81
676,133	137,3
676,543	59,6
676,953	95,17
677,363	75,04
677,773	74,11
678,183	-11,56
678,593	97,51
679,003	38,06
679,413	116,24
679,823	50,23
680,233	88,62
680,643	78,32
681,052	15,13
681,462	58,19
681,872	78,32
682,281	121,85
682,691	39
683,1	-25,6
683,509	119,05
683,919	71,3
684,328	91,9
684,737	105,47
685,146	18,4
685,555	39
685,964	67,09
686,373	26,36
686,782	65,68
687,191	51,17
687,6	58,66
688,009	78,79
688,417	105,94
688,826	49,77
689,235	39
689,643	46,96
690,052	106,87
690,46	136,83
690,869	74,58
691,277	-9,68
691,685	87,21
692,093	41,81
692,502	43,68
692,91	29,17
693,318	94,7
693,726	38,53
694,134	104,07
694,542	113,43
694,949	54,91
695,357	43,21
695,765	36,66
696,173	118,58
696,58	94,7
696,988	35,25
697,395	174,28
697,803	2,95
698,21	64,75
698,618	45,55
699,025	59,6
699,432	35,72
699,839	23,55
700,247	-1,73
700,654	35,25
701,061	89,55
701,468	55,85
701,875	119,51
702,281	14,19
702,688	51,64
703,095	121,39
703,502	80,19
703,908	86,28
704,315	156,03
704,722	149,47
705,128	554,85
705,534	3951,44
705,941	8030,06
706,347	10479,19
706,753	9472,29
707,16	6531,18
707,566	4890,93
707,972	3715,98
708,378	2425,41
708,784	1223,78
709,19	579,66
709,596	210,79
710,002	144,32
710,407	119,98
710,813	89,55
711,219	136,83
711,625	104,07
712,03	94,24
712,436	95,64
712,841	54,91
713,246	51,17
713,652	-5,94
714,057	4,83
714,462	8,1
714,868	89,09
715,273	5,76
715,678	24,02
716,083	60,53
716,488	34,32
716,893	45,08
717,297	47,89
717,702	76,45
718,107	57,72
718,512	0,15
718,916	76,45
719,321	3,42
719,725	91,9
720,13	39,94
720,534	62,4
720,939	-3,13
721,343	117,64
721,747	80,66
722,151	24,02
722,556	57,26
722,96	42,28
723,364	-36,83
723,768	40,4
724,172	21,21
724,576	101,73
724,979	36,66
725,383	48,83
725,787	94,7
726,19	76,92
726,594	140,11
726,998	1318,34
727,401	3356,01
727,805	4883,91
728,208	4942,89
728,611	3698,66
729,014	2716,57
729,418	2011,6
729,821	1455,02
730,224	814,18
730,627	406,46
731,03	224,37
731,433	133,09
731,836	91,43
732,239	68,02
732,641	75,51
733,044	110,62
733,447	55,85
733,849	34,32
734,252	26,36
734,654	-14,83
735,057	69,89
735,459	69,43
735,862	24,96
736,264	94,7
736,666	34,32
737,068	1,08
737,47	86,75
737,872	27,76
738,274	16,53
738,676	-12,96
739,078	14,66
739,48	107,81
739,882	-30,75
740,284	89,09
740,685	4,83
741,087	96,11
741,488	-32,62
741,89	13,25
742,291	31,51
742,693	-9,68
743,094	7,17
743,495	2,02
743,897	28,7
744,298	62,4
744,699	17
745,1	76,92
745,501	-15,77
745,902	55,38
746,303	78,79
746,704	27,76
747,105	26,36
747,505	-38,24
747,906	17,47
748,307	-35,43
748,707	32,45
749,108	5,76
749,508	19,34
749,908	61,94
750,309	-29,34
750,709	102,66
751,109	-49
751,51	35,72
751,91	46,96
752,31	36,66
752,71	34,32
753,11	58,66
753,51	8,1
753,909	16,06
754,309	69,43
754,709	85,81
755,109	70,83
755,508	33,85
755,908	47,43
756,307	-17,17
756,707	-10,62
757,106	47,43
757,505	36,66
757,905	10,44
758,304	-62,58
758,703	60,06
759,102	44,15
759,501	32,45
759,9	-0,79
760,299	42,28
760,698	34,79
761,097	71,3
761,496	5,76
761,895	20,74
762,293	-22,32
762,692	-46,66
763,09	-3,6
763,489	61,47
763,887	-1,73
764,286	0,61
764,684	30,57
765,082	-1,26
765,481	-15,77
765,879	-0,32
766,277	19,81
766,675	-4,53
767,073	19,81
767,471	-46,2
767,869	-32,15
768,267	51,64
768,664	-12,49
769,062	-16,24
769,46	73,17
769,857	-37,77
770,255	26,83
770,653	-83,64
771,05	-23,73
771,447	-50,88
771,845	-25,6
772,242	-18,58
772,639	-25,6
773,036	-8,28
773,433	-34,03
773,831	-26,07
774,228	-9,22
774,624	9,04
775,021	17,93
775,418	-95,82
775,815	-24,2
776,212	-11,09
776,608	-37,3
777,005	18,4
777,401	-0,32
777,798	1,55
778,194	-24,66
778,591	-30,28
778,987	58,66
779,383	-31,69
779,78	9,04
780,176	-47,13
780,572	-23,73
780,968	17
781,364	29,64
781,76	-46,66
782,156	-47,6
782,551	-56,03
782,947	-36,83
783,343	-5
783,739	-42,45
784,134	-18,58
784,53	-43,86
784,925	-11,56
785,321	-30,75
785,716	-34,49
786,111	20,74
786,507	-25,13
786,902	1,55
787,297	-14,37
787,692	-27,47
788,087	34,79
788,482	67,09
788,877	-51,81
789,272	-11,09
789,667	-24,2
790,061	-41,52
790,456	5,76
790,851	-46,2
791,245	-17,64
791,64	-5,47
792,034	27,3
792,429	-5,47
792,823	-36,37
793,217	-22,32
793,612	12,79
794,006	58,66
794,4	24,02
794,794	-27
795,188	-3,13
795,582	42,28
795,976	18,87
796,37	-13,9
796,763	-53,22
797,157	22,15
797,551	-35,9
797,944	-43,39
798,338	-1,73
798,731	0,61
799,125	8,1
799,518	-97,22
799,912	2,02
800,305	8,1
800,698	-6,41
801,091	-8,75
801,484	37,13
801,877	53,98
802,27	-43,86
802,663	15,13
803,056	65,68
803,449	23,55
803,842	31,51
804,235	45,08
804,627	24,96
805,02	-98,16
805,412	-62,11
805,805	89,09
806,197	22,62
806,59	-9,22
806,982	-7,34
807,374	1,55
807,766	-19,05
808,159	23,08
808,551	58,19
808,943	-3,13
809,335	-22,79
809,727	19,81
810,118	-0,32
810,51	-24,2
810,902	-21,39
811,294	-25,13
811,685	-36,37
812,077	-19,98
812,468	-34,49
812,86	-107,05
813,251	-16,71
813,643	-12,96
814,034	56,32
814,425	-4,53
814,816	38,06
815,207	65,68
815,598	-47,13
815,989	50,7
816,38	-51,35
816,771	-21,39
817,162	-31,69
817,553	-2,19
817,944	-23,73
818,334	41,81
818,725	-57,43
819,115	-18,58
819,506	-40,58
819,896	70,36
820,287	18,4
820,677	-17,64
821,067	-20,92
821,457	-2,66
821,848	28,23
822,238	11,85
822,628	6,7
823,018	9,98
823,408	-70,07
823,797	-37,77
824,187	64,75
824,577	-27
824,967	-71,47
825,356	-36,37
825,746	29,64
826,135	-12,02
826,525	12,32
826,914	33,85
827,304	-71,47
827,693	1,08
828,082	24,96
828,471	39,47
828,86	-8,28
829,249	13,25
829,638	10,44
830,027	33,85
830,416	112,96
830,805	88,62
831,194	-20,92
831,582	51,64
831,971	-53,22
832,36	2,95
832,748	50,7
833,137	11,85
833,525	-19,98
833,914	2,49
834,302	-8,28
834,69	-29,81
835,078	-44,32
835,466	-23,26
835,854	93,77
836,243	20,27
836,63	-18,58
837,018	-6,41
837,406	41,81
837,794	-11,09
838,182	11,85
838,569	48,36
838,957	2,02
839,345	-1,73
839,732	-56,96
840,12	-27
840,507	58,19
840,894	15,13
841,282	-12,49
841,669	2,95
842,056	-2,66
842,443	11,38
842,83	62,87
843,217	0,15
843,604	-15,3
843,991	0,61
844,378	-6,88
844,764	27,76
845,151	6,23
845,538	8,1
845,924	72,7
846,311	6,23
846,697	-46,66
847,084	-12,49
847,47	-35,9
847,856	17
848,242	-1,73
848,629	50,23
849,015	4,36
849,401	-52,75
849,787	-7,34
850,173	30,57
850,559	-51,81
850,944	0,15
851,33	3,42
851,716	52,11
852,102	-21,39
852,487	62,87
852,873	-27,94
853,258	4,36
853,644	9,98
854,029	30,57
854,414	61,47
854,799	-19,98
855,185	-56,96
855,57	71,77
855,955	106,41
856,34	5,3
856,725	-24,2
857,11	85,81
857,495	8,57
857,879	-17,64
858,264	-20,45
858,649	-12,49
859,033	-28,41
859,418	-19,05
859,802	5,3
860,187	-15,3
860,571	53,98
860,955	17
861,34	31,04
861,724	22,62
862,108	-57,9
862,492	72,23
862,876	29,64
863,26	-100,5
863,644	13,25
864,028	-34,03
864,412	58,66
864,795	-10,15
865,179	-48,54
865,563	-61,18
865,946	35,72
866,33	-3,13
866,713	25,42
867,097	-42,92
867,48	-71,01
867,863	31,04
868,246	40,87
868,629	45,55
869,013	24,96
869,396	18,87
869,779	57,26
870,161	6,7
870,544	-34,03
870,927	70,83
871,31	34,79
871,693	30,11
872,075	26,83
872,458	-46,2
872,84	27,76
873,223	20,27
873,605	-40,11
873,987	49,3
874,37	34,32
874,752	33,85
875,134	20,74
875,516	39,94
875,898	3,89
876,28	16,53
876,662	-18,58
877,044	52,57
877,426	12,32
877,807	11,38
878,189	21,68
878,571	-9,22
878,952	26,36
879,334	51,64
879,715	66,15
880,097	2,02
880,478	12,79
880,859	32,91
881,24	46,02
881,622	-45,26
882,003	17
882,384	15,59
882,765	39,94
883,146	-9,68
883,526	29,17
883,907	38,06
884,288	12,79
884,669	105
885,049	-18,58
885,43	-14,37
885,81	15,13
886,191	-5,94
886,571	-31,22
886,952	-64,92
887,332	13,72
887,712	39
888,092	-29,81
888,472	-61,18
888,852	78,79
889,232	-6,41
889,612	43,68
889,992	-44,32
890,372	9,04
890,752	16,06
891,131	-29,34
891,511	-27,94
891,89	4,83
892,27	-1,26
892,649	45,55
893,029	-26,54
893,408	-27
893,787	22,15
894,167	-16,24
894,546	13,25
894,925	40,87
895,304	1,08
895,683	-7,81
896,062	10,91
896,441	22,62
896,819	15,59
897,198	41,34
897,577	-59,3
897,955	19,34
898,334	56,32
898,712	8,57
899,091	25,42
899,469	-36,83
899,848	-21,39
900,226	94,24
900,604	50,23
900,982	43,21
901,36	5,76
901,738	20,74
902,116	24,02
902,494	37,13
902,872	68,02
903,25	-5,94
903,628	-1,73
904,005	-15,77
904,383	-10,62
904,76	18,4
905,138	-7,81
905,515	8,57
905,893	9,51
906,27	6,23
906,647	29,64
907,024	75,98
907,402	16,06
907,779	-15,77
908,156	-3,13
908,533	-35,43
908,91	-13,43
909,286	0,61
909,663	90,02
910,04	-13,9
910,417	6,7
910,793	11,38
911,17	-7,34
911,546	-25,6
911,923	24,49
912,299	-6,41
912,675	-43,39
913,051	30,11
913,428	23,55
913,804	-9,22
914,18	-13,9
914,556	41,81
914,932	-1,73
915,308	-46,2
915,683	34,79
916,059	-18,58
916,435	-12,02
916,811	-69,6
917,186	-10,15
917,562	-7,81
917,937	-36,83
918,313	11,38
918,688	-33,56
919,063	88,62
919,438	-24,66
919,814	-12,02
920,189	-54,62
920,564	28,7
920,939	33,38
921,314	70,83
921,689	34,32
922,063	54,45
922,438	20,27
922,813	53,51
923,187	129,81
923,562	-9,22
923,936	-4,53
924,311	46,49
924,685	17,93
925,06	-43,86
925,434	10,91
925,808	-8,28
926,182	-34,03
926,556	-14,37
926,93	24,49
927,304	43,68
927,678	53,51
928,052	-4,07
928,426	19,34
928,8	110,15
929,173	41,34
929,547	63,34
929,92	79,26
930,294	-52,28
930,667	-17,17
931,041	-34,49
931,414	56,32
931,787	-32,62
932,161	24,96
932,534	16,53
932,907	-62,11
933,28	36,19
933,653	13,72
934,026	5,3
934,398	60,06
934,771	66,15
935,144	50,23
935,517	14,66
935,889	2,95
936,262	-24,2
936,634	56,79
937,007	8,57
937,379	28,23
937,751	1,55
938,123	-8,75
938,496	-11,56
938,868	-46,2
939,24	-3,6
939,612	41,81
939,984	42,28
940,355	-12,02
940,727	-83,18
941,099	-31,69
941,471	14,66
941,842	-21,85
942,214	19,34
942,585	2,02
942,957	35,25
943,328	-42,45
943,7	-13,9
944,071	2,02
944,442	-62,58
944,813	-86,45
945,184	-14,37
945,555	5,3
945,926	74,58
946,297	49,77
946,668	-35,43
947,039	12,79
947,409	-22,32
947,78	-6,88
948,151	-10,15
948,521	17,47
948,892	48,83
949,262	1,55
949,633	17,93
950,003	44,15
950,373	8,57
950,743	-26,07
951,113	14,66
951,483	-5
951,853	-9,68
952,223	2,95
952,593	-33,56
952,963	54,45
953,333	-28,88
953,702	-35,43
954,072	24,96
954,442	74,11
954,811	-13,9
955,181	39,94
955,55	34,32
955,919	16,06
956,289	-27,94
956,658	28,23
957,027	59,13
957,396	32,91
957,765	2,02
958,134	39,94
958,503	-25,13
958,872	7,17
959,24	-60,71
959,609	65,68
959,978	15,13
960,346	81,6
960,715	-27,94
961,083	-16,71
961,452	-5
961,82	-27,47
962,188	46,96
962,557	-31,22
962,925	3,42
963,293	38,06
963,661	-11,09
964,029	4,36
964,397	19,81
964,765	39,47
965,133	21,21
965,5	2,49
965,868	-2,19
966,236	72,23
966,603	34,32
966,971	52,57
967,338	-37,3
967,706	23,08
968,073	17
968,44	52,11
968,807	1,55
969,174	37,13
969,542	77,85
969,909	22,62
970,275	-13,43
970,642	-48,07
971,009	-14,37
971,376	75,04
971,743	22,62
972,109	41,81
972,476	3,89
972,842	-47,13
973,209	-17,17
973,575	-23,26
973,942	-48,54
974,308	2,02
974,674	96,11
975,04	72,23
975,406	62,4
975,772	4,36
976,138	66,15
976,504	53,51
976,87	18,4
977,236	-2,66
977,602	23,55
977,967	8,57
978,333	-41,52
978,698	29,17
979,064	-1,73
979,429	100,32
979,795	52,57
980,16	46,49
980,525	24,96
980,89	37,59
981,255	2,49
981,621	36,19
981,986	-83,18
982,35	-30,75
982,715	-0,79
983,08	-31,22
983,445	13,25
983,81	14,66
984,174	49,77
984,539	-21,39
984,903	34,32
985,268	-6,41
985,632	-79,9
985,996	11,38
986,361	22,62
986,725	54,91
987,089	-16,24
987,453	54,45
987,817	-39,64
988,181	29,17
988,545	77,85
988,909	8,1
989,272	41,81
989,636	-98,62
990	-13,43
990,363	17
990,727	0,15
991,09	-8,28
991,454	-49,94
991,817	3,89
992,18	20,74
992,543	10,91
992,907	-6,88
993,27	-3,13
993,633	53,51
993,996	-44,79
994,359	22,15
994,721	-55,56
995,084	30,11
995,447	-32,15
995,81	15,59
996,172	-2,66
996,535	-36,83
996,897	71,77
997,259	31,98
997,622	45,08
997,984	-43,39
998,346	30,11
998,708	-17,64
999,071	45,08
999,433	50,7
999,795	39,94
1000,156	20,27
1000,518	85,81
1000,88	78,79
1001,242	26,36
1001,603	13,25
1001,965	-22,32
1002,327	1,55
1002,688	19,81
1003,049	11,85
1003,411	9,98
1003,772	24,96
1004,133	16,53
1004,495	44,62
1004,856	17,47
1005,217	64,28
1005,578	16,06
1005,939	-28,41
1006,299	-36,83
1006,66	61,47
1007,021	19,81
1007,382	9,98
1007,742	14,19
1008,103	20,74
1008,463	52,57
1008,824	45,08
1009,184	26,36
1009,544	14,19
1009,904	69,89
1010,265	14,19
1010,625	-30,28
1010,985	-39,17
1011,345	-15,3
1011,705	-34,49
1012,065	48,36
1012,424	53,04
1012,784	50,23
1013,144	-40,58
1013,503	56,32
1013,863	62,4
1014,222	-83,64
1014,582	2,02
1014,941	-56,03
1015,3	-19,05
1015,66	56,32
1016,019	35,25
1016,378	46,02
1016,737	9,04
1017,096	30,57
1017,455	-12,49
1017,814	-24,2
1018,173	-5
1018,531	-45,73
1018,89	-9,22
1019,249	-6,41
1019,607	23,55
1019,966	2,02
1020,324	-5,94
1020,682	54,45
1021,041	-5
1021,399	53,51
1021,757	12,79
1022,115	65,21
1022,473	-63,05
1022,831	33,85
1023,189	-35,9
1023,547	46,49
1023,905	-20,45
1024,263	41,34
1024,62	43,21
1024,978	53,98
1025,335	7,64
1025,693	-1,73
1026,05	17,47
1026,408	17
1026,765	51,17
1027,122	-6,41
1027,479	33,38
1027,837	-34,96
1028,194	59,13
1028,551	2,49
1028,908	-7,34
1029,264	4,83
1029,621	-5,47
1029,978	32,45
1030,335	-19,51
1030,691	-7,34
1031,048	36,19
1031,404	10,91
1031,761	-35,9
1032,117	50,7
1032,473	-69,13
1032,83	-18,58
1033,186	-6,88
1033,542	44,62
1033,898	29,64
1034,254	39
1034,61	39
1034,966	39
