Data from FLMS055071__0__14-14-25-784.txt Node

Date: Wed Apr 28 14:14:25 CEST 2021
User: thoma
Spectrometer: FLMS05507
Trigger mode: 0
Integration Time (sec): 5,350000E-3
Scans to average: 6
Electric dark correction enabled: true
Nonlinearity correction enabled: false
Boxcar width: 0
XAxis mode: Wavelengths
Number of Pixels in Spectrum: 2048
>>>>>Begin Spectral Data<<<<<
188,96	-36,33
189,424	-36,33
189,887	-36,33
190,351	-60,9
190,815	-83,14
191,279	-91,72
191,742	-72,22
192,206	-74,17
192,669	-49,2
193,133	-52,32
193,596	-22,28
194,06	-31,65
194,523	-3,56
194,987	15,16
195,45	3,85
195,913	44,81
196,376	35,45
196,84	69,78
197,303	56,51
197,766	76,02
198,229	95,52
198,692	121,27
199,155	109,18
199,618	166,13
200,081	312,41
200,543	330,36
201,006	354,15
201,469	356,49
201,932	325,68
202,394	357,66
202,857	335,82
203,32	366,25
203,782	397,45
204,245	381,85
204,707	378,73
205,169	395,5
205,632	415,4
206,094	439,97
206,556	399,4
207,019	401,35
207,481	411,11
207,943	417,35
208,405	421,25
208,867	428,27
209,329	434,12
209,791	421,64
210,253	402,52
210,715	431,78
211,177	409,54
211,639	446,6
212,1	404,08
212,562	411,5
213,024	407,59
213,485	427,49
213,947	418,91
214,408	390,82
214,87	417,35
215,331	414,62
215,793	379,12
216,254	380,29
216,715	398,62
217,177	397,06
217,638	379,12
218,099	377,56
218,56	413,06
219,021	386,14
219,482	383,41
219,944	409,94
220,404	390,04
220,865	389,26
221,326	399,79
221,787	395,11
222,248	374,05
222,709	405,25
223,169	370,54
223,63	375,22
224,091	381,85
224,551	372,49
225,012	391,6
225,472	374,05
225,933	404,08
226,393	386,53
226,854	376,39
227,314	384,58
227,774	382,63
228,234	402,52
228,695	392,77
229,155	396,28
229,615	376,39
230,075	416,57
230,535	373,66
230,995	416,18
231,455	370,54
231,915	386,53
232,375	395,89
232,834	401,74
233,294	382,63
233,754	381,85
234,214	400,96
234,673	376,39
235,133	400,96
235,592	418,13
236,052	409,15
236,511	383,41
236,971	404,86
237,43	365,85
237,889	427,49
238,349	398,23
238,808	418,52
239,267	402,91
239,726	420,86
240,185	402,91
240,644	398,62
241,103	404,08
241,562	414,23
242,021	424,76
242,48	429,83
242,939	395,5
243,398	401,74
243,857	408,76
244,315	408,76
244,774	385,36
245,233	423,98
245,691	397,84
246,15	389,26
246,608	409,94
247,067	406,42
247,525	410,72
247,983	410,72
248,442	410,72
248,9	421,64
249,358	395,11
249,816	401,74
250,274	373,66
250,733	410,72
251,191	416,18
251,649	384,19
252,107	388,09
252,564	418,13
253,022	408,76
253,48	420,08
253,938	426,71
254,396	395,5
254,853	376,78
255,311	405,25
255,769	411,11
256,226	405,64
256,684	412,67
257,141	421,25
257,599	391,99
258,056	392,38
258,513	393,55
258,971	382,24
259,428	406,42
259,885	396,67
260,342	426,32
260,799	420,47
261,256	399,01
261,714	396,67
262,171	402,52
262,627	408,37
263,084	402,91
263,541	396,28
263,998	422,81
264,455	405,64
264,912	402,13
265,368	438,02
265,825	397,84
266,281	407,2
266,738	402,13
267,194	422,03
267,651	425,54
268,107	445,43
268,564	426,32
269,02	421,64
269,476	411,89
269,933	423,59
270,389	393,55
270,845	422,03
271,301	407,2
271,757	404,08
272,213	400,96
272,669	408,76
273,125	418,13
273,581	404,08
274,037	407,59
274,492	413,84
274,948	385,75
275,404	413,84
275,86	392,38
276,315	425,54
276,771	413,45
277,226	423,59
277,682	392,77
278,137	430,22
278,593	401,35
279,048	429,05
279,503	424,37
279,958	414,62
280,414	425,15
280,869	427,49
281,324	417,35
281,779	405,25
282,234	427,49
282,689	431,39
283,144	420,47
283,599	426,71
284,054	406,03
284,508	450,5
284,963	433,34
285,418	421,25
285,873	442,7
286,327	418,91
286,782	452,84
287,236	411,89
287,691	416,57
288,145	420,08
288,6	431
289,054	431,78
289,508	409,15
289,963	429,05
290,417	439,97
290,871	433,73
291,325	443,48
291,779	435,68
292,233	456,36
292,687	407,98
293,141	431,78
293,595	430,61
294,049	447,38
294,503	462,21
294,957	446,6
295,41	420,08
295,864	454,02
296,318	460,65
296,771	435,68
297,225	459,09
297,678	459,48
298,132	456,36
298,585	461,43
299,039	448,94
299,492	468,84
299,945	465,33
300,398	483,27
300,852	507,46
301,305	498,1
301,758	486,39
302,211	481,32
302,664	537,88
303,117	551,54
303,57	581,96
304,023	619,8
304,476	675,59
304,928	730,59
305,381	779,35
305,834	881,94
306,286	891,7
306,739	954,89
307,192	1085,57
307,644	1172,17
308,097	1270,47
308,549	1401,93
309,001	1488,92
309,454	1605,56
309,906	1667,19
310,358	1780,32
310,81	2088,1
311,263	2375,59
311,715	2604,97
312,167	2736,43
312,619	2991,16
313,071	3134,32
313,523	3334,43
313,975	3573,95
314,426	3719,06
314,878	3842,72
315,33	3969,89
315,782	4017,48
316,233	3974,57
316,685	4209,79
317,136	4537,47
317,588	4884,26
318,039	5127,67
318,491	5364,07
318,942	5475,24
319,393	5804,87
319,845	6113,43
320,296	6437,59
320,747	6911,16
321,198	7133,9
321,649	7549,74
322,101	7500,59
322,552	7551,3
323,003	7298,13
323,453	7245,86
323,904	7627,76
324,355	8219,52
324,806	8663,44
325,257	9207,23
325,707	9850,88
326,158	10284,27
326,609	11060,15
327,059	11330,09
327,51	11346,87
327,96	10979,79
328,411	11121,01
328,861	11100,72
329,311	11390,56
329,762	11963,6
330,212	12036,16
330,662	12116,12
331,112	11758,8
331,562	11507,98
332,012	11616,42
332,462	11587,94
332,912	11449,46
333,362	11426,84
333,812	11341,41
334,262	11488,86
334,712	11589,5
335,161	11788,84
335,611	11779,87
336,061	11483,01
336,51	11105,01
336,96	10686,84
337,409	10664,99
337,859	10682,16
338,308	11089,41
338,758	11408,89
339,207	11857,5
339,656	12093,5
340,105	12612,32
340,555	12847,93
341,004	12477,74
341,453	12462,52
341,902	12365,39
342,351	12533,52
342,8	12965,74
343,249	12780,84
343,698	12484,37
344,146	11725,65
344,595	11346,48
345,044	11457,26
345,493	11843,84
345,941	12142,26
346,39	12123,54
346,838	12265,92
347,287	12382,56
347,735	12319,75
348,184	12281,52
348,632	12214,04
349,08	12277,23
349,529	12409,47
349,977	12672
350,425	13296,14
350,873	13643,32
351,321	13929,26
351,769	13654,25
352,217	13447,5
352,665	13326,96
353,113	13452,18
353,561	14136,01
354,009	14670,82
354,456	15197,44
354,904	15280,92
355,352	15553,2
355,799	15195,49
356,247	14661,85
356,694	13876,99
357,142	13076,52
357,589	12548,73
358,037	11995,2
358,484	11490,42
358,931	11746,71
359,379	12790,98
359,826	14086,08
360,273	14661,07
360,72	14585
361,167	14051,36
361,614	13802,87
362,061	14171,11
362,508	14866,25
362,955	15271,17
363,402	15330,07
363,848	15674,91
364,295	16166,81
364,742	16092,3
365,188	16624
365,635	17619,11
366,082	18496,81
366,528	19223,16
366,975	19262,56
367,421	19186,49
367,867	18884,95
368,314	18728,14
368,76	18574,44
369,206	18781,97
369,652	19676,83
370,098	19836,38
370,545	19329,27
370,991	19426,01
371,437	19511,44
371,882	19250,47
372,328	18400,85
372,774	17718,59
373,22	16998,09
373,666	16508,14
374,111	15933,54
374,557	15831,33
375,003	16054,86
375,448	16931,78
375,894	17638,23
376,339	17897,64
376,785	18557,67
377,23	19737,69
377,675	20996,51
378,121	22204,61
378,566	22027,9
379,011	21092,08
379,456	20184,73
379,901	19855,89
380,346	20164,06
380,791	20586,13
381,236	19908,94
381,681	18929,42
382,126	17332,4
382,571	15814,17
383,016	14377,08
383,461	13630,45
383,905	14002,6
384,35	14923,6
384,794	16308,02
385,239	17038,66
385,683	17050,75
386,128	17333,96
386,572	17577,37
387,017	17577,37
387,461	17646,03
387,905	17838,34
388,349	17536,42
388,794	17879,69
389,238	18787,43
389,682	19883,58
390,126	20692,24
390,57	21476,32
391,014	22231,14
391,457	22968,02
391,901	22153,51
392,345	20508,12
392,789	17607,8
393,233	15240,74
393,676	13836,42
394,12	14891,61
394,563	17152,18
395,007	18971,16
395,45	20437,12
395,894	19970,18
396,337	17960,83
396,78	16048,22
397,224	16182,42
397,667	18277,58
398,11	21287,51
398,553	23734,93
398,996	25639,35
399,439	26952,39
399,882	28200,29
400,325	29250,8
400,768	30452,66
401,211	30135,91
401,654	31287,45
402,096	31585,87
402,539	31541,4
402,982	30847,04
403,424	31092,02
403,867	31230,11
404,309	31279,65
404,752	30407,02
405,194	30677,35
405,637	30488,55
406,079	30248,25
406,521	29570,67
406,963	29397,86
407,406	29133,38
407,848	29838,27
408,29	30348,51
408,732	31541,79
409,174	31732,93
409,616	30201,05
410,058	29525,81
410,499	29713,44
410,941	30678,13
411,383	31865,95
411,825	32146,82
412,266	32516,62
412,708	31925,25
413,15	31860,88
413,591	31780,53
414,033	32470,59
414,474	32399,21
414,915	31528,92
415,357	32442,12
415,798	32166,32
416,239	32264,63
416,68	32422,61
417,121	31600,3
417,563	31100,21
418,004	31087,34
418,445	31186,81
418,885	31380,68
419,326	30653,95
419,767	30953,54
420,208	31237,13
420,649	31587,43
421,089	32592,3
421,53	32577,87
421,971	32178,81
422,411	30540,04
422,852	31017,9
423,292	31113,08
423,733	30901,26
424,173	31445,05
424,613	31574,17
425,054	30986,69
425,494	30964,85
425,934	31131,42
426,374	31068,22
426,814	29950,62
427,254	29789,12
427,694	29100,22
428,134	29642,84
428,574	29580,81
429,014	28201,46
429,454	27181,37
429,893	25650,66
430,333	23631,17
430,773	23647,55
431,212	24579,87
431,652	26832,63
432,091	28569,7
432,531	28828,72
432,97	29988,46
433,41	29996,26
433,849	29159,52
434,288	29046
434,727	30668,38
435,167	31140,39
435,606	31501,61
436,045	32153,84
436,484	32701,14
436,923	32756,92
437,362	32366,05
437,801	31714,6
438,239	31467,67
438,678	30746,79
439,117	31172,77
439,556	31712,26
439,994	31663,5
440,433	31813,68
440,871	32866,14
441,31	33263,25
441,748	34037,58
442,187	34863,01
442,625	35253,1
443,063	34644,95
443,502	34356,67
443,94	36399,96
444,378	35786,35
444,816	35945,9
445,254	35546,06
445,692	34821,66
446,13	34973,41
446,568	35558,15
447,006	35878,02
447,444	35237,11
447,881	36955,84
448,319	37658,78
448,757	36098,42
449,194	37032,3
449,632	37496,89
450,07	37839,78
450,507	38610,99
450,944	39333,04
451,382	38930,47
451,819	38201
452,256	37966,17
452,694	36942,58
453,131	37818,33
453,568	37258,16
454,005	36918,78
454,442	37248,8
454,879	37170,39
455,316	37610,41
455,753	37117,34
456,19	37988,02
456,627	38259,13
457,063	38500,98
457,5	38617,62
457,937	38023,9
458,373	37336,96
458,81	36742,46
459,246	38019,22
459,683	36935,17
460,119	38054,33
460,556	38289,95
460,992	38761,56
461,428	38825,15
461,864	39812,46
462,301	39815,58
462,737	40380,82
463,173	39627,95
463,609	39649,8
464,045	39420,03
464,481	39452,41
464,917	39374,39
465,352	39302,62
465,788	39164,92
466,224	39775,41
466,66	38992,89
467,095	39533,94
467,531	39152,04
467,966	39190,66
468,402	40107,76
468,837	40974,93
469,273	41101,32
469,708	40657,79
470,143	40237,66
470,578	41311,97
471,014	40783,79
471,449	42138,57
471,884	42880,13
472,319	44072,24
472,754	43505,44
473,189	43566,29
473,624	44374,56
474,059	44750,21
474,493	45692,67
474,928	46889,07
475,363	46861,77
475,797	47125,08
476,232	46868,4
476,667	48136,19
477,101	48253,22
477,536	50108,09
477,97	49939,57
478,404	50000,43
478,839	50607,01
479,273	51480,81
479,707	52033,96
480,141	52397,52
480,575	52773,96
481,009	52905,03
481,444	53557,65
481,877	54243,43
482,311	54106,9
482,745	54381,13
483,179	54404,53
483,613	54378,01
484,047	54151,76
484,48	54262,15
484,914	54203,25
485,347	52067,51
485,781	50619,11
486,214	49369,26
486,648	49943,86
487,081	50841,46
487,515	51900,94
487,948	52604,66
488,381	53059,51
488,814	53406,69
489,247	54178,28
489,68	55114,89
490,113	55557,64
490,546	55750,34
490,979	55530,72
491,412	55281,45
491,845	54509,08
492,278	54871,86
492,711	55223,72
493,143	55339,97
493,576	55616,54
494,009	55703,53
494,441	56506,72
494,874	56471,23
495,306	56484,49
495,738	56389,7
496,171	56328,84
496,603	56842,98
497,035	56860,93
497,467	56726,35
497,9	56149,4
498,332	55675,83
498,764	55735,91
499,196	56173,98
499,628	55856,84
500,06	55395,75
500,491	54871,47
500,923	54812,18
501,355	54342,51
501,787	54094,02
502,218	54460,32
502,65	54800,47
503,081	54867,96
503,513	54875,37
503,944	54806,33
504,376	54915,55
504,807	55149,21
505,238	55920,03
505,67	56244,97
506,101	56184,9
506,532	56198,55
506,963	55992,2
507,394	55935,63
507,825	55410,57
508,256	55350,89
508,687	55717,57
509,118	55803
509,549	55841,23
509,979	55403,16
510,41	55546,32
510,841	55905,21
511,271	55725,38
511,702	56258,63
512,132	55666,47
512,563	55414,47
512,993	55065,73
513,424	54833,63
513,854	54376,06
514,284	54138,1
514,714	54210,27
515,145	54357,33
515,575	54347,58
516,005	53281,47
516,435	51566,63
516,865	50079,22
517,295	50248,13
517,724	50220,83
518,154	49677,43
518,584	50198,98
519,014	50701,81
519,443	51858,42
519,873	52069,07
520,303	52594,13
520,732	52887,48
521,161	53111,39
521,591	53464,03
522,02	53418,39
522,45	52953,79
522,879	52326,14
523,308	52861,73
523,737	53066,14
524,166	53571,69
524,595	53577,93
525,024	53282,64
525,453	53207,74
525,882	52216,52
526,311	50808,3
526,74	49773
527,169	49562,36
527,597	50255,15
528,026	50919,09
528,455	51052,11
528,883	51769,09
529,312	51836,58
529,74	51735,54
530,168	52065,17
530,597	52334,33
531,025	52663,57
531,453	52300,39
531,882	51490,18
532,31	50768,9
532,738	50189,23
533,166	50384,66
533,594	50275,05
534,022	49947,76
534,45	50342,14
534,878	50568,4
535,305	50725,6
535,733	51261,97
536,161	50674,5
536,588	50101,46
537,016	49604,48
537,444	49933,72
537,871	50055,04
538,299	49744,53
538,726	49513,98
539,153	49203,47
539,581	48196,65
540,008	47828,02
540,435	47600,6
540,862	47531,94
541,289	47569
541,716	47800,32
542,143	47456,65
542,57	47735,18
542,997	47478,5
543,424	48215,38
543,851	48037,5
544,277	47987,95
544,704	47994,98
545,131	47891,21
545,557	47877,95
545,984	47664,96
546,41	47513,22
546,837	47509,32
547,263	47075,54
547,69	46819,64
548,116	46871,52
548,542	46578,56
548,968	47138,34
549,394	46924,57
549,82	46494,3
550,246	46672,57
550,672	46214,61
551,098	46346,46
551,524	46321,88
551,95	46349,58
552,376	46348,41
552,802	45934,92
553,227	45798,38
553,653	45819,06
554,078	46123,72
554,504	46336,71
554,929	45886,15
555,355	45979,78
555,78	45781,22
556,206	45121,97
556,631	44703,01
557,056	44258,7
557,481	44142,06
557,906	44134,65
558,331	43305,71
558,756	42784,16
559,181	42494,72
559,606	42452,59
560,031	42924,6
560,456	42659,73
560,881	43084,14
561,305	43170,35
561,73	42414,75
562,155	42652,31
562,579	42530,22
563,004	42409,29
563,428	42054,7
563,853	42559,47
564,277	42104,63
564,701	41948,2
565,126	41846,39
565,55	41413
565,974	41132,14
566,398	41132,92
566,822	41180,12
567,246	41491,8
567,67	41707,91
568,094	41036,17
568,518	40878,19
568,941	41342,78
569,365	41353,32
569,789	41336,54
570,213	40788,86
570,636	40800,95
571,06	40438,17
571,483	41026,03
571,907	41289,73
572,33	41683,33
572,753	41782,41
573,177	41434,06
573,6	41492,58
574,023	41266,33
574,446	41139,55
574,869	40332,45
575,292	40109,71
575,715	39443,83
576,138	39391,56
576,561	39103,28
576,984	39029,94
577,407	38429,6
577,829	37915,46
578,252	37453,2
578,675	37058,04
579,097	36903,57
579,52	36967,93
579,942	37086,52
580,364	36834,13
580,787	36776,79
581,209	36599,3
581,631	36519,33
582,054	36643,77
582,476	36645,72
582,898	36674,2
583,32	36486,95
583,742	36176,44
584,164	36233
584,586	35798,05
585,008	35200,44
585,429	34928,55
585,851	34444,84
586,273	34932,84
586,694	34657,82
587,116	34717,51
587,538	34374,62
587,959	34168,65
588,38	33119,31
588,802	32221,33
589,223	31537,5
589,644	31551,15
590,066	31902,23
590,487	32489,32
590,908	32866,92
591,329	32807,63
591,75	33067,43
592,171	33015,94
592,592	33230,88
593,013	33349,07
593,434	33504,33
593,854	33635,79
594,275	33541,39
594,696	33652,17
595,116	33688,45
595,537	34027,44
595,957	34021,98
596,378	34083,22
596,798	34248,62
597,218	34350,43
597,639	34119,11
598,059	34202,2
598,479	34015,35
598,899	34200,64
599,319	34129,64
599,739	33874,52
600,159	33823,42
600,579	33884,28
600,999	33359,61
601,419	33100,59
601,839	33021,4
602,259	32708,94
602,678	32687,09
603,098	32810,36
603,517	32749,12
603,937	32623,51
604,356	32706,21
604,776	32225,23
605,195	31888,19
605,614	31779,75
606,034	31232,45
606,453	31069,78
606,872	31033,11
607,291	30618,45
607,71	30382,84
608,129	29723,58
608,548	29428,29
608,967	29438,82
609,386	28909,86
609,805	28500,26
610,223	28616,12
610,642	28115,64
611,061	28162,84
611,479	27692,39
611,898	27487,2
612,316	27449,36
612,735	26993,74
613,153	26818,2
613,571	26400,8
613,99	26379,74
614,408	26336,05
614,826	26261,15
615,244	25814,11
615,662	25538,32
616,08	24996,87
616,498	24979,71
616,916	24915,34
617,334	24903,64
617,752	24916,9
618,169	25039,78
618,587	24698,84
619,005	24834,21
619,422	24628,24
619,84	24543,59
620,257	24600,15
620,675	24384,43
621,092	24373,12
621,509	24149,21
621,927	23886,29
622,344	23816,85
622,761	23531,7
623,178	23117,42
623,595	23147,07
624,012	22858,4
624,429	22632,15
624,846	22365,72
625,263	22131,67
625,68	22130,89
626,097	22374,3
626,513	22070,81
626,93	21999,82
627,346	21704,91
627,763	21535,61
628,179	21458,76
628,596	21392,06
629,012	21240,31
629,429	21175,56
629,845	20869,34
630,261	20759,33
630,677	20865,05
631,093	20695,36
631,509	20489,78
631,925	20579,11
632,341	20497,97
632,757	20555,71
633,173	20520,99
633,589	20442,19
634,005	20394,21
634,42	20326,33
634,836	20337,26
635,252	20297,08
635,667	20132,46
636,083	19835,21
636,498	20098,13
636,913	20012,31
637,329	20062,63
637,744	20212,82
638,159	19901,14
638,574	19757,97
638,99	19815,71
639,405	19644,46
639,82	19481,01
640,235	19326,53
640,65	19266,85
641,064	19049,18
641,479	19024,61
641,894	18890,81
642,309	18966,48
642,723	18903,29
643,138	18810,06
643,552	18853,36
643,967	18771,44
644,381	18771,44
644,796	18485,89
645,21	18680,16
645,624	18430,11
646,038	18289,68
646,453	18169,14
646,867	18241,31
647,281	18017,79
647,695	17972,53
648,109	17723,27
648,523	17735,75
648,936	17425,24
649,35	17213,03
649,764	17257,5
650,178	17338,25
650,591	17415,88
651,005	17323,04
651,418	17273,88
651,832	17184,55
652,245	17122,14
652,659	17070,26
653,072	17149,84
653,485	17030,08
653,898	16989,12
654,312	16609,17
654,725	16543,25
655,138	16031,45
655,551	15357,77
655,964	14625,18
656,377	14389,95
656,789	14693,83
657,202	15023,07
657,615	15354,26
658,028	15565,68
658,44	15907,79
658,853	15693,24
659,265	15682,71
659,678	15722,89
660,09	15815,73
660,503	15849,67
660,915	15965,92
661,327	15745,91
661,739	15647,99
662,152	15717,04
662,564	15665,94
662,976	15591,04
663,388	15482,59
663,8	15282,09
664,211	15366,74
664,623	15245,42
665,035	15318,37
665,447	15188,47
665,858	15059,74
666,27	15066,76
666,682	14798,38
667,093	14777,7
667,505	14689,15
667,916	14640,39
668,327	14642,34
668,739	14554,96
669,15	14400,49
669,561	14337,29
669,972	14310,38
670,383	14042,78
670,794	14020,93
671,205	13855,14
671,616	13836,81
672,027	13705,35
672,438	13584,03
672,849	13553,21
673,259	13437,36
673,67	13478,32
674,08	13282,88
674,491	13245,43
674,901	13067,94
675,312	13145,57
675,722	13117,09
676,133	13006,7
676,543	12771,47
676,953	12857,68
677,363	12721,93
677,773	12679,41
678,183	12586,18
678,593	12394,65
679,003	12469,16
679,413	12314,68
679,823	12222,62
680,233	12080,63
680,643	11987,39
681,052	11980,76
681,462	11902,75
681,872	11919,91
682,281	11770,12
682,691	11701,46
683,1	11586,77
683,509	11514,61
683,919	11306,3
684,328	11411,62
684,737	11222,43
685,146	11125,69
685,555	11050,79
685,964	10426,65
686,373	9815,38
686,782	9163,15
687,191	8812,07
687,6	8799,98
688,009	8803,88
688,417	8818,31
688,826	8751,6
689,235	8857,32
689,643	8847,57
690,052	8976,69
690,46	9120,24
690,869	9254,04
691,277	9248,19
691,685	9328,55
692,093	9370,68
692,502	9491,99
692,91	9498,24
693,318	9377,31
693,726	9396,81
694,134	9304,75
694,542	9327,38
694,949	9337,91
695,357	9193,97
695,765	9290,71
696,173	9194,75
696,58	9355,46
696,988	9104,25
697,395	9099,17
697,803	9110,1
698,21	9111,27
698,618	9090,98
699,025	8898,28
699,432	8841,71
699,839	8716,89
700,247	8814,41
700,654	8752,77
701,061	8554,22
701,468	8540,18
701,875	8492,59
702,281	8422,37
702,688	8428,22
703,095	8445,38
703,502	8560,07
703,908	8465,28
704,315	8434,46
704,722	8336,16
705,128	8513,65
705,534	8363,47
705,941	8327,58
706,347	8269,45
706,753	8299,88
707,16	8257,36
707,566	8217,18
707,972	8159,45
708,378	8113,42
708,784	8049,44
709,19	7951,92
709,596	8002,24
710,002	8112,64
710,407	7957,38
710,813	7868,44
711,219	7850,11
711,625	7837,24
712,03	7754,54
712,436	7777,94
712,841	7635,95
713,246	7751,03
713,652	7596,55
714,057	7602,79
714,462	7449,1
714,868	7484,2
715,273	7429,59
715,678	7334,8
716,083	7205,68
716,488	6988,79
716,893	6805,45
717,297	6599,87
717,702	6385,71
718,107	6340,46
718,512	6138,79
718,916	6008,11
719,321	5945,69
719,725	5988,99
720,13	6044,38
720,534	6057,26
720,939	6279,61
721,343	6346,31
721,747	6383,37
722,151	6335,39
722,556	6421,99
722,96	6145,03
723,364	6190,67
723,768	5965,2
724,172	6048,68
724,576	5957,78
724,979	5973,78
725,383	5992,5
725,787	6005,38
726,19	6015,52
726,594	5941,01
726,998	5954,27
727,401	5827,1
727,805	5856,75
728,208	5828,67
728,611	5824,76
729,014	5754,16
729,418	5794,34
729,821	5828,28
730,224	5822,42
730,627	5784,2
731,03	5802,53
731,433	5923,07
731,836	5946,86
732,239	5935,94
732,641	5993,67
733,044	5950,76
733,447	6114,6
733,849	6015,91
734,252	6025,27
734,654	5979,24
735,057	5985,87
735,459	5941,79
735,862	5903,95
736,264	5917,22
736,666	5891,08
737,068	5924,63
737,47	5822,42
737,872	5789,27
738,274	5728,8
738,676	5631,67
739,078	5751,82
739,48	5637,52
739,882	5593,05
740,284	5647,66
740,685	5584,08
741,087	5531,42
741,488	5535,71
741,89	5486,95
742,291	5457,3
742,693	5554,43
743,094	5524,01
743,495	5441,31
743,897	5453,01
744,298	5401,13
744,699	5445,21
745,1	5362,12
745,501	5427,65
745,902	5335,2
746,303	5253,28
746,704	5382,01
747,105	5288,78
747,505	5198,67
747,906	5164,73
748,307	5174,1
748,707	5115,19
749,108	5098,03
749,508	5135,48
749,908	5115,58
750,309	5151,86
750,709	5041,86
751,109	5082,81
751,51	5098,42
751,91	4956,04
752,31	4977,88
752,71	4985,29
753,11	5053,56
753,51	5045,37
753,909	4996,6
754,309	5044,59
754,709	4947,06
755,109	5009,87
755,508	4931,07
755,908	4905,32
756,307	4909,61
756,707	4881,92
757,106	4840,96
757,505	4858,12
757,905	4738,37
758,304	4610,42
758,703	4274,16
759,102	3676,93
759,501	2917,82
759,9	2416,94
760,299	2003,06
760,698	1866,14
761,097	1906,32
761,496	2005,79
761,895	2061,96
762,293	2000,72
762,692	1959,37
763,09	2039,73
763,489	2118,92
763,887	2187,57
764,286	2312,79
764,684	2485,99
765,082	2574,93
765,481	2772,71
765,879	2933,03
766,277	3098,82
766,675	3164,36
767,073	3302,06
767,471	3420,64
767,869	3496,32
768,267	3552,49
768,664	3554,05
769,062	3536,11
769,46	3573,95
769,857	3555,62
770,255	3540,01
770,653	3552,88
771,05	3461,6
771,447	3503,34
771,845	3493,98
772,242	3469,02
772,639	3440,15
773,036	3411,67
773,433	3397,24
773,831	3353,55
774,228	3382,42
774,624	3328,19
775,021	3286,45
775,418	3304,01
775,815	3328,19
776,212	3286,45
776,608	3275,53
777,005	3210,39
777,401	3238,47
777,798	3203,36
778,194	3193,61
778,591	3148,75
778,987	3109,74
779,383	3021,58
779,78	3046,16
780,176	3137,05
780,572	3076,59
780,968	3062,54
781,364	3069,95
781,76	3032,12
782,156	2963,07
782,551	2985,69
782,947	2950,98
783,343	2954,88
783,739	2889,73
784,134	2885,44
784,53	2857,75
784,925	2888,95
785,321	2843,31
785,716	2828,88
786,111	2840,97
786,507	2842,53
786,902	2795,72
787,297	2771,15
787,692	2775,83
788,087	2737,99
788,482	2723,16
788,877	2729,02
789,272	2631,1
789,667	2667,38
790,061	2654,12
790,456	2644,76
790,851	2624,86
791,245	2610,43
791,64	2533,19
792,034	2558,55
792,429	2525,39
792,823	2544,11
793,217	2498,47
793,612	2512,13
794,006	2503,54
794,4	2470,78
794,794	2418,11
795,188	2416,94
795,582	2396,27
795,976	2426,7
796,37	2405,63
796,763	2395,88
797,157	2421,24
797,551	2377,94
797,944	2377,16
798,338	2315,91
798,731	2387,3
799,125	2337,76
799,518	2309,67
799,912	2347,51
800,305	2264,81
800,698	2249,99
801,091	2256,23
801,484	2270,27
801,877	2248,43
802,27	2289,78
802,663	2195,37
803,056	2187,18
803,449	2163
803,842	2202,4
804,235	2152,07
804,627	2207,08
805,02	2121,65
805,412	2171,58
805,805	2143,88
806,197	2132,57
806,59	2122,04
806,982	2111,89
807,374	2118,14
807,766	2141,15
808,159	2074,45
808,551	2037
808,943	2058,45
809,335	1996,04
809,727	2039,34
810,118	2038,56
810,51	1992,53
810,902	1972,24
811,294	1969,9
811,685	1981,99
812,077	1961,71
812,468	1905,15
812,86	1931,67
813,251	1847,02
813,643	1871,99
814,034	1799,04
814,425	1816,21
814,816	1795,14
815,207	1740,14
815,598	1728,83
815,989	1681,63
816,38	1688,65
816,771	1694,5
817,162	1650,81
817,553	1652,37
817,944	1634,82
818,334	1609,46
818,725	1634,82
819,115	1616,87
819,506	1597,76
819,896	1658,61
820,287	1663,68
820,677	1662,12
821,067	1692,94
821,457	1633,26
821,848	1593,86
822,238	1556,02
822,628	1540,02
823,018	1541,97
823,408	1523,25
823,797	1581,76
824,187	1613,36
824,577	1630,13
824,967	1607,12
825,356	1615,7
825,746	1628,57
826,135	1621,55
826,525	1614,53
826,914	1592,3
827,304	1550,56
827,693	1545,48
828,082	1567,33
828,471	1534,95
828,86	1510,38
829,249	1522,47
829,638	1522,08
830,027	1525,2
830,416	1528,71
830,805	1509,99
831,194	1518,57
831,582	1488,92
831,971	1529,1
832,36	1482,68
832,748	1460,84
833,137	1515,84
833,525	1449,13
833,914	1506,48
834,302	1465,13
834,69	1460,06
835,078	1485,8
835,466	1466,3
835,854	1467,47
836,243	1488,92
836,63	1457,32
837,018	1456,54
837,406	1497,11
837,794	1418,71
838,182	1481,12
838,569	1437,04
838,957	1415,98
839,345	1446,79
839,732	1403,1
840,12	1428,46
840,507	1388,28
840,894	1448,74
841,282	1392,57
841,669	1384,77
842,056	1400,37
842,443	1414,81
842,83	1357,46
843,217	1342,64
843,604	1383,6
843,991	1332,11
844,378	1393,74
844,764	1364,48
845,151	1371,9
845,538	1335,62
845,924	1371,12
846,311	1346,15
846,697	1348,49
847,084	1328,6
847,47	1280,61
847,856	1313,77
848,242	1323,52
848,629	1272,42
849,015	1281
849,401	1211,96
849,787	1187,38
850,173	1223,66
850,559	1207,67
850,944	1230,68
851,33	1194,4
851,716	1197,53
852,102	1209,23
852,487	1219,76
852,873	1201,82
853,258	1169,05
853,644	1078,94
854,029	1084,01
854,414	1076,21
854,799	1092,98
855,185	1130,82
855,57	1144,08
855,955	1134,33
856,34	1120,68
856,725	1098,05
857,11	1114,44
857,495	1111,71
857,879	1121,07
858,264	1117,17
858,649	1118,34
859,033	1162,81
859,418	1102,73
859,802	1092,59
860,187	1101,56
860,571	1073,09
860,955	1089,47
861,34	1066,07
861,724	1059,82
862,108	1081,67
862,492	1039,93
862,876	1075,04
863,26	1059,43
863,644	1040,71
864,028	1007,16
864,412	1071,14
864,795	1021,99
865,179	994,68
865,563	983,37
865,946	938,9
866,33	895,99
866,713	946,7
867,097	963,86
867,48	935
867,863	945,14
868,246	924,46
868,629	949,04
869,013	941,63
869,396	937,73
869,779	949,82
870,161	949,43
870,544	908,08
870,927	942,8
871,31	946,7
871,693	920,95
872,075	890,92
872,458	913,54
872,84	911,98
873,223	855,81
873,605	865,95
873,987	910,03
874,37	866,34
874,752	864
875,134	884,67
875,516	861,27
875,898	844,1
876,28	873,75
876,662	885,06
877,044	843,32
877,426	855,42
877,807	809,78
878,189	815,24
878,571	818,36
878,952	821,48
879,334	823,04
879,715	783,64
880,097	807,05
880,478	802,36
880,859	798,46
881,24	821,87
881,622	815,24
882,003	821,48
882,384	835,91
882,765	850,74
883,146	832,79
883,526	829,67
883,907	883,5
884,288	824,99
884,669	828,5
885,049	853,08
885,43	851,13
885,81	833,57
886,191	853,08
886,571	845,66
886,952	859,32
887,332	877,65
887,712	844,1
888,092	901,45
888,472	895,99
888,852	907,69
889,232	872,19
889,612	883,89
889,992	870,24
890,372	892,09
890,752	868,29
891,131	860,88
891,511	872,58
891,89	894,82
892,27	858,93
892,649	883,11
893,029	839,81
893,408	854,25
893,787	837,47
894,167	852,3
894,546	807,44
894,925	779,35
895,304	812,9
895,683	790,66
896,062	783,25
896,441	777,01
896,819	725,91
897,198	736,83
897,577	727,47
897,955	710,3
898,334	697,43
898,712	693,14
899,091	704,45
899,469	684,17
899,848	682,61
900,226	670,12
900,604	679,88
900,982	644,77
901,36	674,42
901,738	663,88
902,116	651,79
902,494	626,43
902,872	667
903,25	632,29
903,628	640,09
904,005	651,79
904,383	656,08
904,76	664,66
905,138	651,4
905,515	675,2
905,893	644,77
906,27	636,58
906,647	674,42
907,024	601,47
907,402	636,19
907,779	599,91
908,156	598,74
908,533	561,68
908,91	572,21
909,286	587,04
909,663	586,26
910,04	545,69
910,417	574,16
910,793	564,41
911,17	554,66
911,546	536,71
911,923	581,57
912,299	575,33
912,675	563,63
913,051	562,85
913,428	552,71
913,804	545,69
914,18	551,93
914,556	549,2
914,932	549,2
915,308	554,27
915,683	526,18
916,059	542,57
916,435	534,76
916,811	534,76
917,186	531,64
917,562	527,35
917,937	540,22
918,313	529,69
918,688	524,62
919,063	539,83
919,438	537,1
919,814	520,33
920,189	535,15
920,564	519,94
920,939	533,98
921,314	518,77
921,689	507,07
922,063	525,79
922,438	545,3
922,813	518,38
923,187	516,82
923,562	499,27
923,936	512,92
924,311	488,73
924,685	507,07
925,06	497,71
925,434	506,29
925,808	514,48
926,182	492,24
926,556	494,97
926,93	510,58
927,304	512,14
927,678	462,21
928,052	491,07
928,426	491,46
928,8	474,3
929,173	458,31
929,547	493,02
929,92	485,61
930,294	453,63
930,667	447,77
931,041	473,13
931,414	452,06
931,787	451,67
932,161	406,42
932,534	396,28
932,907	405,64
933,28	399,79
933,653	427,88
934,026	390,43
934,398	404,86
934,771	397,45
935,144	397,84
935,517	412,28
935,889	390,82
936,262	370,54
936,634	381,07
937,007	351,42
937,379	372,88
937,751	377,56
938,123	398,23
938,496	373,66
938,868	367,42
939,24	358,05
939,612	377,56
939,984	376
940,355	364,68
940,727	394,33
941,099	386,14
941,471	360
941,842	398,23
942,214	384,19
942,585	393,55
942,957	400,18
943,328	363,12
943,7	409,94
944,071	356,88
944,442	347,13
944,813	352,59
945,184	359,22
945,555	365,07
945,926	347,52
946,297	362,73
946,668	381,46
947,039	374,44
947,409	370,15
947,78	379,12
948,151	376
948,521	392,77
948,892	379,51
949,262	354,93
949,633	378,34
950,003	374,44
950,373	352,98
950,743	353,37
951,113	378,73
951,483	379,12
951,853	367,42
952,223	388,09
952,593	380,29
952,963	370,93
953,333	365,07
953,702	386,92
954,072	374,83
954,442	384,97
954,811	364,29
955,181	370,15
955,55	366,25
955,919	366,64
956,289	369,76
956,658	355,71
957,027	359,22
957,396	354,15
957,765	371,71
958,134	375,61
958,503	365,46
958,872	347,91
959,24	384,97
959,609	364,68
959,978	347,13
960,346	377,56
960,715	361,56
961,083	396,67
961,452	356,1
961,82	357,66
962,188	368,98
962,557	354,54
962,925	394,72
963,293	349,47
963,661	377,56
964,029	365,07
964,397	373,27
964,765	372,49
965,133	379,51
965,5	357,27
965,868	382,63
966,236	372,88
966,603	386,53
966,971	382,63
967,338	375,22
967,706	393,16
968,073	365,07
968,44	367,81
968,807	373,66
969,174	369,37
969,542	402,13
969,909	366,64
970,275	377,95
970,642	362,73
971,009	388,09
971,376	386,14
971,743	376,39
972,109	358,83
972,476	394,33
972,842	336,6
973,209	398,23
973,575	358,44
973,942	372,1
974,308	381,85
974,674	374,05
975,04	365,07
975,406	377,56
975,772	355,32
976,138	412,28
976,504	375,61
976,87	358,05
977,236	371,71
977,602	331,53
977,967	368,98
978,333	384,58
978,698	370,15
979,064	353,76
979,429	361,56
979,795	379,51
980,16	389,65
980,525	377,95
980,89	377,56
981,255	378,73
981,621	363,51
981,986	357,66
982,35	345,57
982,715	368,98
983,08	345,57
983,445	360
983,81	353,37
984,174	357,66
984,539	347,52
984,903	373,27
985,268	371,32
985,632	359,22
985,996	368,2
986,361	384,19
986,725	351,42
987,089	370,15
987,453	366,25
987,817	378,34
988,181	355,71
988,545	365,07
988,909	346,74
989,272	344,01
989,636	375,61
990	344,4
990,363	342,84
990,727	365,85
991,09	346,74
991,454	356,1
991,817	362,73
992,18	345,96
992,543	348,69
992,907	346,74
993,27	357,66
993,633	351,81
993,996	352,2
994,359	349,08
994,721	389,26
995,084	365,46
995,447	346,35
995,81	337,38
996,172	341,28
996,535	335,04
996,897	334,26
997,259	375,22
997,622	358,44
997,984	336,21
998,346	345,96
998,708	352,98
999,071	368,98
999,433	352,59
999,795	322,16
1000,156	344,79
1000,518	350,64
1000,88	378,73
1001,242	351,81
1001,603	343,23
1001,965	376
1002,327	357,27
1002,688	368,98
1003,049	377,56
1003,411	339,72
1003,772	343,62
1004,133	359,61
1004,495	345,96
1004,856	327,63
1005,217	349,86
1005,578	298,76
1005,939	332,7
1006,299	328,8
1006,66	342,45
1007,021	326,85
1007,382	349,08
1007,742	353,76
1008,103	358,05
1008,463	345,18
1008,824	356,1
1009,184	340,11
1009,544	338,94
1009,904	344,4
1010,265	332,31
1010,625	361,17
1010,985	318,26
1011,345	349,08
1011,705	338,94
1012,065	344,01
1012,424	348,69
1012,784	352,98
1013,144	334,26
1013,503	346,74
1013,863	342,06
1014,222	363,51
1014,582	343,23
1014,941	342,06
1015,3	344,79
1015,66	350,64
1016,019	344,79
1016,378	347,91
1016,737	335,43
1017,096	320,6
1017,455	341,67
1017,814	325,29
1018,173	329,19
1018,531	314,75
1018,89	320,99
1019,249	342,06
1019,607	319,43
1019,966	358,83
1020,324	331,92
1020,682	315,92
1021,041	321,77
1021,399	321,77
1021,757	335,43
1022,115	343,62
1022,473	341,28
1022,831	334,65
1023,189	343,23
1023,547	353,76
1023,905	351,42
1024,263	361,17
1024,62	352,2
1024,978	336,21
1025,335	342,45
1025,693	349,47
1026,05	336,99
1026,408	338,94
1026,765	370,93
1027,122	322,56
1027,479	328,41
1027,837	313,97
1028,194	308,12
1028,551	313,19
1028,908	301,49
1029,264	355,71
1029,621	334,65
1029,978	353,37
1030,335	339,33
1030,691	344,79
1031,048	319,43
1031,404	315,92
1031,761	328,02
1032,117	301,88
1032,473	313,58
1032,83	359,22
1033,186	331,53
1033,542	352,2
1033,898	326,07
1034,254	342,06
1034,61	342,06
1034,966	342,06
