Data from FLMS055071__7__14-16-34-981.txt Node

Date: Wed Apr 28 14:16:34 CEST 2021
User: thoma
Spectrometer: FLMS05507
Trigger mode: 0
Integration Time (sec): 1,000000E-3
Scans to average: 1
Electric dark correction enabled: false
Nonlinearity correction enabled: false
Boxcar width: 0
XAxis mode: Wavelengths
Number of Pixels in Spectrum: 2048
>>>>>Begin Spectral Data<<<<<
188,96	2705,66
189,424	2705,66
189,887	2705,66
190,351	2628,42
190,815	2677,57
191,279	2642,46
191,742	2654,17
192,206	2609,7
192,669	2656,51
193,133	2693,96
193,596	2710,34
194,06	2696,3
194,523	2698,64
194,987	2698,64
195,45	2665,87
195,913	2715,02
196,376	2708
196,84	2757,15
197,303	2808,64
197,766	2876,52
198,229	2853,11
198,692	2911,63
199,155	2864,82
199,618	2899,92
200,081	2986,52
200,543	3016,95
201,006	2956,1
201,469	3021,63
201,932	2993,55
202,394	3026,31
202,857	3052,06
203,32	3068,44
203,782	3030,99
204,245	3035,67
204,707	3052,06
205,169	3063,76
205,632	3054,4
206,094	3096,53
206,556	3066,1
207,019	3096,53
207,481	3122,27
207,943	3084,83
208,405	3087,17
208,867	3084,83
209,329	3115,25
209,791	3159,72
210,253	3112,91
210,715	3040,36
211,177	3122,27
211,639	3119,93
212,1	3183,13
212,562	3061,42
213,024	3101,21
213,485	3131,64
213,947	3173,77
214,408	3124,62
214,87	3035,67
215,331	3098,87
215,793	3075,46
216,254	3073,12
216,715	3129,3
217,177	3061,42
217,638	3124,62
218,099	3028,65
218,56	3047,38
219,021	3112,91
219,482	3040,36
219,944	3021,63
220,404	3009,93
220,865	3066,1
221,326	3047,38
221,787	3035,67
222,248	3091,85
222,709	3080,14
223,169	3019,29
223,63	3033,33
224,091	3066,1
224,551	3052,06
225,012	2988,86
225,472	3038,02
225,933	3105,89
226,393	3084,83
226,854	3115,25
227,314	3061,42
227,774	3052,06
228,234	3063,76
228,695	3108,23
229,155	3049,72
229,615	3021,63
230,075	3012,27
230,535	3112,91
230,995	3087,17
231,455	3124,62
231,915	3148,02
232,375	3119,93
232,834	3080,14
233,294	3026,31
233,754	3059,08
234,214	3042,7
234,673	3089,51
235,133	3059,08
235,592	3094,19
236,052	3101,21
236,511	3138,66
236,971	3087,17
237,43	3091,85
237,889	3061,42
238,349	3080,14
238,808	3094,19
239,267	3073,12
239,726	3089,51
240,185	3026,31
240,644	3115,25
241,103	3094,19
241,562	3094,19
242,021	3035,67
242,48	3070,78
242,939	3054,4
243,398	3131,64
243,857	3014,61
244,315	3066,1
244,774	3124,62
245,233	3038,02
245,691	3089,51
246,15	3021,63
246,608	3042,7
247,067	3068,44
247,525	3047,38
247,983	3059,08
248,442	3063,76
248,9	3110,57
249,358	3096,53
249,816	3084,83
250,274	3045,04
250,733	3061,42
251,191	3080,14
251,649	3016,95
252,107	3089,51
252,564	3070,78
253,022	3007,59
253,48	3082,49
253,938	3150,36
254,396	3063,76
254,853	3040,36
255,311	3014,61
255,769	3089,51
256,226	3103,55
256,684	3117,59
257,141	3110,57
257,599	3077,8
258,056	3016,95
258,513	3098,87
258,971	3138,66
259,428	3084,83
259,885	3026,31
260,342	3141
260,799	3073,12
261,256	3014,61
261,714	3103,55
262,171	3047,38
262,627	3112,91
263,084	3084,83
263,541	3068,44
263,998	3108,23
264,455	3103,55
264,912	3014,61
265,368	3061,42
265,825	3087,17
266,281	3124,62
266,738	3094,19
267,194	3115,25
267,651	3133,98
268,107	3049,72
268,564	3077,8
269,02	3117,59
269,476	3045,04
269,933	3105,89
270,389	3119,93
270,845	3157,38
271,301	3021,63
271,757	3122,27
272,213	3129,3
272,669	3108,23
273,125	3084,83
273,581	3096,53
274,037	3126,96
274,492	3009,93
274,948	3045,04
275,404	3141
275,86	3077,8
276,315	3063,76
276,771	3108,23
277,226	3122,27
277,682	3112,91
278,137	3068,44
278,593	3094,19
279,048	3082,49
279,503	3070,78
279,958	3056,74
280,414	3105,89
280,869	3094,19
281,324	3075,46
281,779	3101,21
282,234	3159,72
282,689	3091,85
283,144	3056,74
283,599	3098,87
284,054	3112,91
284,508	3056,74
284,963	3061,42
285,418	3126,96
285,873	3068,44
286,327	3084,83
286,782	3098,87
287,236	3087,17
287,691	3129,3
288,145	3073,12
288,6	3141
289,054	3119,93
289,508	3101,21
289,963	3094,19
290,417	3033,33
290,871	3108,23
291,325	3159,72
291,779	3089,51
292,233	3122,27
292,687	3091,85
293,141	3045,04
293,595	3080,14
294,049	3082,49
294,503	3131,64
294,957	3094,19
295,41	3089,51
295,864	3115,25
296,318	3080,14
296,771	3038,02
297,225	3122,27
297,678	3101,21
298,132	3115,25
298,585	3096,53
299,039	3141
299,492	3112,91
299,945	3141
300,398	3124,62
300,852	3059,08
301,305	3038,02
301,758	3131,64
302,211	3126,96
302,664	3157,38
303,117	3162,06
303,57	3192,49
304,023	3131,64
304,476	3129,3
304,928	3108,23
305,381	3152,7
305,834	3143,34
306,286	3164,4
306,739	3117,59
307,192	3133,98
307,644	3105,89
308,097	3218,24
308,549	3274,41
309,001	3176,11
309,454	3293,13
309,906	3246,32
310,358	3330,58
310,81	3302,5
311,263	3328,24
311,715	3386,76
312,167	3456,97
312,619	3466,33
313,071	3461,65
313,523	3459,31
313,975	3531,87
314,426	3445,27
314,878	3599,74
315,33	3602,08
315,782	3660,6
316,233	3590,38
316,685	3606,77
317,136	3702,73
317,588	3747,2
318,039	3700,39
318,491	3824,44
318,942	3791,67
319,393	3824,44
319,845	3889,97
320,296	3885,29
320,747	3955,51
321,198	4032,74
321,649	4152,11
322,101	4138,07
322,552	4093,6
323,003	4124,02
323,453	4121,68
323,904	4142,75
324,355	4205,94
324,806	4245,73
325,257	4353,4
325,707	4507,87
326,158	4535,96
326,609	4718,52
327,059	4690,43
327,51	4655,33
327,96	4648,3
328,411	4741,93
328,861	4697,46
329,311	4814,48
329,762	4929,17
330,212	4957,25
330,662	4929,17
331,112	4931,51
331,562	4868,31
332,012	4784,05
332,462	4812,14
332,912	4863,63
333,362	4837,89
333,812	4917,47
334,262	4870,65
334,712	4973,64
335,161	4933,85
335,611	4945,55
336,061	4919,81
336,51	4938,53
336,96	4784,05
337,409	4758,31
337,859	4849,59
338,308	4877,68
338,758	4961,94
339,207	5085,98
339,656	5144,5
340,105	5174,92
340,555	5235,78
341,004	5128,11
341,453	5233,44
341,902	5233,44
342,351	5207,69
342,8	5289,61
343,249	5348,12
343,698	5324,72
344,146	5057,9
344,595	5046,19
345,044	5203,01
345,493	5210,03
345,941	5366,85
346,39	5430,04
346,838	5362,17
347,287	5394,93
347,735	5327,06
348,184	5378,55
348,632	5380,89
349,08	5315,36
349,529	5486,22
349,977	5404,3
350,425	5509,62
350,873	5671,12
351,321	5741,33
351,769	5746,02
352,217	5589,2
352,665	5640,69
353,113	5680,48
353,561	5898,15
354,009	5914,53
354,456	6176,67
354,904	6267,95
355,352	6171,99
355,799	6083,05
356,247	6069,01
356,694	5923,9
357,142	5696,86
357,589	5734,31
358,037	5493,24
358,484	5551,75
358,931	5600,9
359,379	5673,46
359,826	5954,32
360,273	6167,31
360,72	6228,17
361,167	6052,63
361,614	6083,05
362,061	6190,72
362,508	6256,25
362,955	6267,95
363,402	6380,3
363,848	6438,81
364,295	6520,73
364,742	6581,59
365,188	6768,83
365,635	7073,1
366,082	7155,02
366,528	7199,49
366,975	7290,77
367,421	7445,24
367,867	7419,5
368,314	7321,2
368,76	7323,54
369,206	7417,16
369,652	7616,1
370,098	7770,58
370,545	7506,1
370,991	7583,34
371,437	7616,1
371,882	7606,74
372,328	7370,35
372,774	7309,49
373,22	7042,67
373,666	7021,61
374,111	6913,94
374,557	6927,99
375,003	7080,12
375,448	7166,72
375,894	7290,77
376,339	7456,95
376,785	7871,22
377,23	7915,69
377,675	8351,03
378,121	8484,44
378,566	8542,96
379,011	8353,37
379,456	8173,15
379,901	8077,19
380,346	8266,77
380,791	8219,96
381,236	8013,99
381,681	7983,57
382,126	7609,08
382,571	7300,13
383,016	7080,12
383,461	6719,68
383,905	6822,66
384,35	6916,28
384,794	7197,15
385,239	7559,93
385,683	7623,12
386,128	7669,94
386,572	7843,14
387,017	7712,07
387,461	7836,11
387,905	7939,1
388,349	7822,07
388,794	7861,86
389,238	8311,24
389,682	8423,59
390,126	8573,38
390,57	8861,27
391,014	9130,43
391,457	9317,67
391,901	9092,98
392,345	8587,43
392,789	8032,72
393,233	7662,91
393,676	7157,36
394,12	7368,01
394,563	7915,69
395,007	8301,88
395,45	8856,59
395,894	8622,53
396,337	8339,33
396,78	8126,34
397,224	7871,22
397,667	8259,75
398,11	9153,84
398,553	9841,95
398,996	10721,99
399,439	10951,37
399,882	11426,5
400,325	11662,89
400,768	12245,68
401,211	12226,96
401,654	12294,83
402,096	12606,13
402,539	12430,59
402,982	12379,09
403,424	12538,25
403,867	12634,21
404,309	12615,49
404,752	12374,41
405,194	12540,59
405,637	12507,82
406,079	12437,61
406,521	12231,64
406,963	12154,4
407,406	12236,32
407,848	12500,8
408,29	12554,63
408,732	12886,99
409,174	13186,58
409,616	12650,6
410,058	12376,75
410,499	12594,42
410,941	12816,77
411,383	13312,97
411,825	13331,69
412,266	13586,81
412,708	13486,17
413,15	13596,17
413,591	13357,44
414,033	13717,88
414,474	13940,23
414,915	13401,91
415,357	13921,51
415,798	13825,54
416,239	13973
416,68	14012,79
417,121	13771,71
417,563	13455,74
418,004	13722,56
418,445	13827,88
418,885	13642,98
419,326	13479,15
419,767	13509,57
420,208	13689,79
420,649	13666,39
421,089	14150,88
421,53	14237,48
421,971	14434,08
422,411	13547,02
422,852	13797,46
423,292	13781,07
423,733	13905,12
424,173	14078,32
424,613	14256,2
425,054	14097,05
425,494	13848,95
425,934	14150,88
426,374	14129,81
426,814	13877,04
427,254	14026,83
427,694	13598,51
428,134	13860,65
428,574	13729,58
429,014	13448,72
429,454	12755,92
429,893	12559,31
430,333	11988,22
430,773	11964,82
431,212	12039,72
431,652	12886,99
432,091	13453,4
432,531	13898,1
432,97	14073,64
433,41	14218,75
433,849	14066,62
434,288	13980,02
434,727	14520,68
435,167	14595,58
435,606	15154,97
436,045	15110,5
436,484	15396,04
436,923	15356,25
437,362	15440,51
437,801	15215,82
438,239	15225,18
438,678	15059,01
439,117	14899,85
439,556	15321,15
439,994	15171,35
440,433	15475,62
440,871	15887,56
441,31	15845,43
441,748	16201,19
442,187	16879,94
442,625	17125,7
443,063	16685,68
443,502	16959,52
443,94	17390,18
444,378	17425,29
444,816	17404,22
445,254	17263,79
445,692	16884,62
446,13	17319,96
446,568	17694,45
447,006	17664,02
447,444	17153,79
447,881	18064,25
448,319	18155,54
448,757	17659,34
449,194	18342,78
449,632	18597,9
450,07	18864,72
450,507	19070,68
450,944	19206,44
451,382	19332,83
451,819	19009,83
452,256	18998,13
452,694	18614,28
453,131	18836,63
453,568	18595,56
454,005	18579,17
454,442	18930,25
454,879	18827,27
455,316	19082,39
455,753	18757,05
456,19	19187,71
456,627	19096,43
457,063	19639,44
457,5	19454,53
457,937	19286,01
458,373	18981,74
458,81	18988,77
459,246	19391,34
459,683	18862,38
460,119	19480,28
460,556	19637,09
460,992	19964,77
461,428	20128,61
461,864	20599,05
462,301	20772,25
462,737	20624,8
463,173	20255
463,609	20795,66
464,045	20760,55
464,481	20556,93
464,917	20786,3
465,352	20531,18
465,788	20652,89
466,224	20868,22
466,66	20725,44
467,095	20905,66
467,531	20683,31
467,966	20772,25
468,402	21483,78
468,837	21699,11
469,273	21792,73
469,708	21626,55
470,143	21685,06
470,578	22242,11
471,014	22162,53
471,449	22546,38
471,884	22916,19
472,319	23391,31
472,754	23557,49
473,189	23461,53
473,624	23648,77
474,059	24095,82
474,493	24795,64
474,928	25268,42
475,363	25607,8
475,797	25603,12
476,232	25776,32
476,667	26574,44
477,101	26492,52
477,536	27257,88
477,97	27124,47
478,404	27843,01
478,839	28053,66
479,273	28716,03
479,707	28666,88
480,141	29111,58
480,575	29488,41
481,009	29514,16
481,444	29851,19
481,877	30607,19
482,311	30740,6
482,745	31140,83
483,179	31260,19
483,613	30885,71
484,047	31044,87
484,48	30890,39
484,914	30885,71
485,347	29872,26
485,781	29020,3
486,214	28463,25
486,648	28559,22
487,081	28987,53
487,515	29399,47
487,948	30073,54
488,381	30469,09
488,814	31077,63
489,247	31639,36
489,68	32238,54
490,113	32346,2
490,546	32898,57
490,979	32950,06
491,412	33010,92
491,845	32472,59
492,278	32732,39
492,711	32493,66
493,143	32776,86
493,576	33514,13
494,009	33366,68
494,441	34232,68
494,874	34108,63
495,306	34366,09
495,738	34572,05
496,171	34103,95
496,603	35023,78
497,035	35112,72
497,467	34735,89
497,9	34436,3
498,332	34810,79
498,764	34623,54
499,196	34813,13
499,628	34106,29
500,06	34359,06
500,491	33530,51
500,923	33464,98
501,355	33207,52
501,787	33631,16
502,218	34052,45
502,65	33497,75
503,081	33965,85
503,513	34099,26
503,944	34012,67
504,376	34359,06
504,807	34632,91
505,238	34749,93
505,67	35519,97
506,101	35007,39
506,532	35817,22
506,963	34845,9
507,394	35283,58
507,825	35428,69
508,256	35196,98
508,687	35531,67
509,118	35564,44
509,549	35452,09
509,979	35796,15
510,41	35810,2
510,841	35571,46
511,271	35503,59
511,702	36018,5
512,132	35992,76
512,563	35864,03
512,993	35440,39
513,424	35262,51
513,854	35402,94
514,284	35075,27
514,714	35044,84
515,145	35215,7
515,575	35037,82
516,005	34485,45
516,435	33502,43
516,865	32926,66
517,295	32233,86
517,724	32561,53
518,154	32524,08
518,584	33029,64
519,014	33186,46
519,443	33500,09
519,873	33902,66
520,303	34600,14
520,732	34314,59
521,161	34946,54
521,591	35075,27
522,02	35126,76
522,45	34726,53
522,879	34410,56
523,308	34852,92
523,737	34934,84
524,166	35250,81
524,595	35112,72
525,024	35739,98
525,453	35082,29
525,882	34560,35
526,311	34415,24
526,74	33254,33
527,169	33413,49
527,597	33202,84
528,026	33942,45
528,455	34623,54
528,883	34749,93
529,312	34871,64
529,74	35234,42
530,168	35534,01
530,597	35735,3
531,025	35433,37
531,453	35920,2
531,882	35388,9
532,31	34888,03
532,738	34361,4
533,166	34333,32
533,594	34417,58
534,022	34178,84
534,45	34775,68
534,878	34859,94
535,305	34710,14
535,733	35398,26
536,161	34983,99
536,588	34958,24
537,016	34527,58
537,444	34555,67
537,871	34309,91
538,299	34469,07
538,726	34684,4
539,153	34464,39
539,581	33692,01
540,008	33640,52
540,435	33663,93
540,862	33373,7
541,289	33867,55
541,716	33823,08
542,143	33563,28
542,57	33570,3
542,997	33734,14
543,424	34359,06
543,851	33799,68
544,277	34305,23
544,704	33888,62
545,131	34040,75
545,557	33907,34
545,984	33872,23
546,41	33895,64
546,837	33968,19
547,263	33743,5
547,69	33612,43
548,116	34146,08
548,542	33628,82
548,968	33867,55
549,394	33956,49
549,82	33703,71
550,246	33867,55
550,672	33809,04
551,098	33830,1
551,524	33696,69
551,95	33954,15
552,376	33722,44
552,802	33493,07
553,227	33666,27
553,653	33689,67
554,078	33752,87
554,504	33795
554,929	33497,75
555,355	33237,95
555,78	33834,78
556,206	33095,17
556,631	33205,18
557,056	32975,81
557,481	32781,54
557,906	32549,83
558,331	32245,56
558,756	31969,38
559,181	32135,56
559,606	31835,97
560,031	32203,43
560,456	32046,61
560,881	31945,97
561,305	32449,19
561,73	31775,11
562,155	32095,77
562,579	32105,13
563,004	32140,24
563,428	31842,99
563,853	32264,28
564,277	32112,15
564,701	31751,71
565,126	31693,19
565,55	31770,43
565,974	31531,7
566,398	31754,05
566,822	31821,92
567,246	31527,02
567,67	31798,52
568,094	31725,96
568,518	31332,75
568,941	31674,47
569,365	31667,45
569,789	31709,58
570,213	31206,36
570,636	31505,95
571,06	31592,55
571,483	31386,58
571,907	31791,5
572,33	32135,56
572,753	32116,83
573,177	32350,88
573,6	32275,99
574,023	32208,11
574,446	31995,12
574,869	31606,59
575,292	31363,18
575,715	30932,52
576,138	31175,94
576,561	30857,62
576,984	30462,07
577,407	30691,44
577,829	30593,14
578,252	30522,93
578,675	29750,55
579,097	29614,8
579,52	29457,98
579,942	30008,01
580,364	29677,99
580,787	29399,47
581,209	29565,65
581,631	29673,31
582,054	29673,31
582,476	30237,38
582,898	29954,18
583,32	29605,44
583,742	29841,83
584,164	29537,56
584,586	29507,13
585,008	29106,9
585,429	28727,74
585,851	28503,04
586,273	28528,79
586,694	28720,71
587,116	28659,86
587,538	28517,09
587,959	28591,98
588,38	27852,38
588,802	27190
589,223	26813,18
589,644	26661,04
590,066	26384,86
590,487	27147,87
590,908	27374,91
591,329	27639,39
591,75	27751,73
592,171	27716,62
592,592	27807,9
593,013	27999,83
593,434	28311,12
593,854	28563,9
594,275	28264,31
594,696	28301,76
595,116	28627,09
595,537	28346,23
595,957	28683,27
596,378	29137,33
596,798	29010,94
597,218	29212,23
597,639	28964,13
598,059	29366,7
598,479	28755,82
598,899	28781,57
599,319	29186,48
599,739	28650,5
600,159	28828,38
600,579	29158,39
600,999	28489
601,419	28479,64
601,839	28325,16
602,259	28423,47
602,678	28086,43
603,098	28402,4
603,517	28238,56
603,937	28063,02
604,356	28444,53
604,776	28135,58
605,195	27714,28
605,614	27721,31
606,034	27482,57
606,453	27094,04
606,872	27215,75
607,291	26995,74
607,71	27087,02
608,129	26335,71
608,548	26174,21
608,967	26150,81
609,386	25619,5
609,805	25469,71
610,223	25088,2
610,642	25144,38
611,061	25010,96
611,479	24795,64
611,898	24702,01
612,316	24657,54
612,735	24489,03
613,153	24285,4
613,571	23995,17
613,99	23999,85
614,408	23903,89
614,826	24030,28
615,244	23613,66
615,662	23740,05
616,08	23213,43
616,498	23073
616,916	22916,19
617,334	23185,35
617,752	23150,24
618,169	23026,19
618,587	22815,54
619,005	22925,55
619,422	22815,54
619,84	23112,79
620,257	22820,22
620,675	22747,67
621,092	22541,7
621,509	22504,25
621,927	22560,42
622,344	22225,73
622,761	22377,86
623,178	21876,99
623,595	22045,51
624,012	21722,51
624,429	21507,18
624,846	21102,27
625,263	21249,72
625,68	21451,01
626,097	21200,57
626,513	21266,11
626,93	21090,57
627,346	20978,22
627,763	20933,75
628,179	20910,35
628,596	20662,25
629,012	20496,07
629,429	20762,89
629,845	20327,55
630,261	20095,84
630,677	20285,42
631,093	20264,36
631,509	20102,86
631,925	19988,17
632,341	20320,53
632,757	20177,76
633,173	19983,49
633,589	20194,14
634,005	19999,88
634,42	20184,78
634,836	20077,12
635,252	20063,07
635,667	20247,97
636,083	20034,99
636,498	20032,65
636,913	19800,93
637,329	19939,02
637,744	20187,12
638,159	19985,83
638,574	19826,68
638,99	19817,32
639,405	19803,27
639,82	19655,82
640,235	19747,1
640,65	19456,87
641,064	19550,49
641,479	19197,07
641,894	19328,14
642,309	19286,01
642,723	19435,81
643,138	19468,58
643,552	19332,83
643,967	19098,77
644,381	19105,79
644,796	18820,25
645,21	19005,15
645,624	18932,59
646,038	18773,44
646,453	18670,45
646,867	18471,51
647,281	18679,82
647,695	18485,55
648,109	18293,63
648,523	18162,56
648,936	18300,65
649,35	18143,83
649,764	17951,91
650,178	18052,55
650,591	18174,26
651,005	18118,09
651,418	18094,68
651,832	17947,23
652,245	18036,17
652,659	18195,32
653,072	18129,79
653,485	17944,89
653,898	18094,68
654,312	17614,87
654,725	17685,09
655,138	17043,78
655,551	16512,48
655,964	16147,36
656,377	15864,15
656,789	15740,1
657,202	16154,38
657,615	16334,6
658,028	16671,64
658,44	17109,32
658,853	16767,6
659,265	16795,68
659,678	17252,09
660,09	17387,84
660,503	17451,03
660,915	17317,62
661,327	17078,89
661,739	17345,71
662,152	17263,79
662,564	17158,47
662,976	16943,14
663,388	17043,78
663,8	17088,25
664,211	16924,41
664,623	16783,98
665,035	16732,49
665,447	16762,92
665,858	16608,44
666,27	16755,9
666,682	16418,86
667,093	16149,7
667,505	16332,26
667,916	16255,02
668,327	16180,12
668,739	16091,18
669,15	16315,87
669,561	15704,99
669,972	15901,6
670,383	15948,41
670,794	15758,83
671,205	15674,57
671,616	15672,23
672,027	15573,92
672,438	15297,74
672,849	15587,97
673,259	15489,67
673,67	15267,31
674,08	15499,03
674,491	15183,06
674,901	15084,75
675,312	14970,07
675,722	15051,99
676,133	15087,09
676,543	15070,71
676,953	14979,43
677,363	14911,55
677,773	14771,12
678,183	14726,65
678,593	14831,97
679,003	14696,22
679,413	14696,22
679,823	14541,75
680,233	14335,78
680,643	14286,63
681,052	14251,52
681,462	14012,79
681,872	14150,88
682,281	14263,22
682,691	14129,81
683,1	13659,37
683,509	13778,73
683,919	13575,11
684,328	13556,38
684,737	13645,32
685,146	13521,27
685,555	13343,39
685,964	12865,92
686,373	12374,41
686,782	11932,05
687,191	11398,41
687,6	11365,64
688,009	11145,63
688,417	11124,57
688,826	11098,82
689,235	11243,93
689,643	11265
690,052	11332,87
690,46	11459,26
690,869	11777,58
691,277	11630,12
691,685	11524,8
692,093	11768,21
692,502	11803,32
692,91	11999,93
693,318	11885,24
693,726	11887,58
694,134	11887,58
694,542	11756,51
694,949	11573,95
695,357	11852,47
695,765	11751,83
696,173	11714,38
696,58	11761,19
696,988	11660,55
697,395	11742,47
697,803	11786,94
698,21	11852,47
698,618	11632,46
699,025	11501,39
699,432	11679,27
699,839	11250,96
700,247	11339,9
700,654	11314,15
701,061	11220,53
701,468	11234,57
701,875	11049,67
702,281	11140,95
702,688	11220,53
703,095	11164,36
703,502	11138,61
703,908	11197,12
704,315	11180,74
704,722	11066,05
705,128	10967,75
705,534	11063,71
705,941	11012,22
706,347	11042,65
706,753	11129,25
707,16	11000,52
707,566	10946,69
707,972	10953,71
708,378	10906,9
708,784	10839,02
709,19	10778,17
709,596	10817,96
710,002	11026,26
710,407	10726,68
710,813	10684,55
711,219	10626,03
711,625	10663,48
712,03	10394,32
712,436	10628,37
712,841	10466,88
713,246	10431,77
713,652	10431,77
714,057	10523,05
714,462	10485,6
714,868	10314,74
715,273	10340,49
715,678	10246,87
716,083	10043,24
716,488	9785,78
716,893	9645,35
717,297	9357,46
717,702	9202,99
718,107	8919,78
718,512	9100
718,916	8982,98
719,321	8772,33
719,725	8793,39
720,13	8662,32
720,534	8681,05
720,939	8842,54
721,343	9050,85
721,747	9114,05
722,151	9104,68
722,556	9245,12
722,96	9057,87
723,364	9172,56
723,768	9081,28
724,172	9043,83
724,576	8688,07
724,979	8730,2
725,383	8709,13
725,787	8765,31
726,19	8760,63
726,594	8667
726,998	8697,43
727,401	8472,74
727,805	8744,24
728,208	8624,87
728,611	8685,73
729,014	8802,75
729,418	8685,73
729,821	8484,44
730,224	8622,53
730,627	8699,77
731,03	8805,1
731,433	8816,8
731,836	8870,63
732,239	8938,51
732,641	8922,12
733,044	8875,31
733,447	9018,08
733,849	9174,9
734,252	8966,59
734,654	8844,88
735,057	8919,78
735,459	8847,23
735,862	8938,51
736,264	8961,91
736,666	8849,57
737,068	8751,26
737,47	8905,74
737,872	8779,35
738,274	8641,26
738,676	8669,34
739,078	8741,9
739,48	8594,45
739,882	8784,03
740,284	8521,89
740,685	8493,8
741,087	8564,02
741,488	8549,98
741,89	8351,03
742,291	8397,84
742,693	8589,77
743,094	8475,08
743,495	8585,08
743,897	8503,17
744,298	8428,27
744,699	8486,78
745,1	8528,91
745,501	8451,67
745,902	8327,63
746,303	8346,35
746,704	8313,58
747,105	8418,91
747,505	8367,42
747,906	8308,9
748,307	8196,56
748,707	8226,98
749,108	8163,79
749,508	8058,46
749,908	8182,51
750,309	8140,38
750,709	8161,45
751,109	8250,39
751,51	8006,97
751,91	8180,17
752,31	8149,75
752,71	7754,19
753,11	8074,85
753,51	8098,25
753,909	8086,55
754,309	8154,43
754,709	8046,76
755,109	8154,43
755,508	7941,44
755,908	7875,9
756,307	7927,39
756,707	7864,2
757,106	7932,08
757,505	7859,52
757,905	7892,29
758,304	7571,63
758,703	7332,9
759,102	6572,22
759,501	6183,7
759,9	5596,22
760,299	5170,24
760,698	4854,27
761,097	4664,69
761,496	4648,3
761,895	4734,9
762,293	4746,61
762,692	4802,78
763,09	4821,5
763,489	4943,21
763,887	4954,91
764,286	5006,41
764,684	5198,33
765,082	5432,38
765,481	5596,22
765,879	5678,14
766,277	5839,64
766,675	5902,83
767,073	6244,55
767,471	6293,7
767,869	6267,95
768,267	6485,62
768,664	6647,12
769,062	6541,8
769,46	6707,98
769,857	6647,12
770,255	6574,56
770,653	6644,78
771,05	6504,35
771,447	6516,05
771,845	6462,22
772,242	6511,37
772,639	6588,61
773,036	6396,68
773,433	6363,92
773,831	6492,65
774,228	6352,21
774,624	6396,68
775,021	6375,62
775,418	6382,64
775,815	6338,17
776,212	6328,81
776,608	6239,87
777,005	6153,27
777,401	6335,83
777,798	6242,21
778,194	6214,12
778,591	6249,23
778,987	6253,91
779,383	6101,78
779,78	6125,18
780,176	6045,6
780,572	6085,39
780,968	5998,79
781,364	6078,37
781,76	6005,81
782,156	6036,24
782,551	5933,26
782,947	5928,58
783,343	5907,51
783,739	5898,15
784,134	5942,62
784,53	5867,72
784,925	5809,21
785,321	5923,9
785,716	5923,9
786,111	5966,03
786,507	5717,93
786,902	5879,43
787,297	5839,64
787,692	5853,68
788,087	5771,76
788,482	5769,42
788,877	5731,97
789,272	5554,09
789,667	5692,18
790,061	5570,47
790,456	5636,01
790,851	5621,97
791,245	5589,2
791,64	5516,64
792,034	5497,92
792,429	5600,9
792,823	5551,75
793,217	5479,19
793,612	5533,03
794,006	5481,53
794,4	5612,6
794,794	5357,49
795,188	5397,28
795,582	5366,85
795,976	5355,15
796,37	5448,77
796,763	5430,04
797,157	5392,59
797,551	5322,38
797,944	5366,85
798,338	5334,08
798,731	5380,89
799,125	5287,27
799,518	5345,78
799,912	5387,91
800,305	5352,81
800,698	5357,49
801,091	5427,7
801,484	5240,46
801,877	5172,58
802,27	5221,74
802,663	5167,9
803,056	5160,88
803,449	5193,65
803,842	5060,24
804,235	5160,88
804,627	5109,39
805,02	5167,9
805,412	5090,67
805,805	5125,77
806,197	5130,45
806,59	5118,75
806,982	5198,33
807,374	5053,22
807,766	5121,09
808,159	5029,81
808,551	4978,32
808,943	5041,51
809,335	5090,67
809,727	4968,96
810,118	5050,88
810,51	4917,47
810,902	4901,08
811,294	4870,65
811,685	4983
812,077	4882,36
812,468	4699,8
812,86	4854,27
813,251	4854,27
813,643	4774,69
814,034	4755,97
814,425	4753,63
814,816	4667,03
815,207	4648,3
815,598	4580,43
815,989	4608,51
816,38	4589,79
816,771	4535,96
817,162	4535,96
817,553	4559,36
817,944	4521,91
818,334	4526,6
818,725	4479,79
819,115	4512,55
819,506	4566,39
819,896	4542,98
820,287	4535,96
820,677	4535,96
821,067	4519,57
821,457	4542,98
821,848	4489,15
822,238	4367,44
822,628	4475,1
823,018	4425,95
823,408	4493,83
823,797	4512,55
824,187	4400,21
824,577	4477,44
824,967	4496,17
825,356	4449,36
825,746	4542,98
826,135	4510,21
826,525	4484,47
826,914	4517,23
827,304	4484,47
827,693	4507,87
828,082	4397,87
828,471	4496,17
828,86	4484,47
829,249	4463,4
829,638	4409,57
830,027	4374,46
830,416	4423,61
830,805	4435,32
831,194	4388,5
831,582	4332,33
831,971	4418,93
832,36	4545,32
832,748	4421,27
833,137	4360,42
833,525	4285,52
833,914	4322,97
834,302	4432,97
834,69	4390,84
835,078	4407,23
835,466	4449,36
835,854	4421,27
836,243	4334,67
836,63	4369,78
837,018	4416,59
837,406	4400,21
837,794	4386,16
838,182	4360,42
838,569	4360,42
838,957	4369,78
839,345	4355,74
839,732	4297,22
840,12	4322,97
840,507	4262,12
840,894	4332,33
841,282	4269,14
841,669	4355,74
842,056	4322,97
842,443	4306,59
842,83	4248,07
843,217	4252,75
843,604	4320,63
843,991	4168,49
844,378	4332,33
844,764	4262,12
845,151	4231,69
845,538	4203,6
845,924	4180,2
846,311	4285,52
846,697	4283,18
847,084	4224,67
847,47	4229,35
847,856	4138,07
848,242	4224,67
848,629	4292,54
849,015	4180,2
849,401	4271,48
849,787	4168,49
850,173	4161,47
850,559	4114,66
850,944	4095,94
851,33	4044,45
851,716	4138,07
852,102	4128,7
852,487	4147,43
852,873	4063,17
853,258	3981,25
853,644	4032,74
854,029	3925,08
854,414	3906,35
854,799	3962,53
855,185	3913,38
855,57	3962,53
855,955	4030,4
856,34	4007
856,725	3955,51
857,11	3948,48
857,495	4025,72
857,879	4039,76
858,264	3953,16
858,649	3983,59
859,033	3999,98
859,418	3990,61
859,802	4025,72
860,187	3932,1
860,571	4025,72
860,955	3955,51
861,34	3946,14
861,724	3929,76
862,108	3868,91
862,492	3939,12
862,876	3955,51
863,26	3875,93
863,644	3929,76
864,028	3796,35
864,412	3906,35
864,795	3899,33
865,179	3859,54
865,563	3789,33
865,946	3796,35
866,33	3796,35
866,713	3791,67
867,097	3829,12
867,48	3896,99
867,863	3843,16
868,246	3857,2
868,629	3826,78
869,013	3798,69
869,396	3875,93
869,779	3801,03
870,161	3803,37
870,544	3756,56
870,927	3808,05
871,31	3798,69
871,693	3882,95
872,075	3758,9
872,458	3730,81
872,84	3648,9
873,223	3779,97
873,605	3747,2
873,987	3754,22
874,37	3712,09
874,752	3709,75
875,134	3728,47
875,516	3716,77
875,898	3662,94
876,28	3754,22
876,662	3684
877,044	3641,87
877,426	3751,88
877,807	3721,45
878,189	3672,3
878,571	3660,6
878,952	3705,07
879,334	3691,02
879,715	3716,77
880,097	3623,15
880,478	3676,98
880,859	3658,26
881,24	3655,92
881,622	3742,52
882,003	3719,11
882,384	3681,66
882,765	3658,26
883,146	3646,55
883,526	3733,15
883,907	3782,31
884,288	3702,73
884,669	3723,79
885,049	3651,24
885,43	3686,34
885,81	3728,47
886,191	3805,71
886,571	3714,43
886,952	3644,21
887,332	3733,15
887,712	3740,18
888,092	3805,71
888,472	3719,11
888,852	3744,86
889,232	3775,28
889,612	3726,13
889,992	3861,88
890,372	3763,58
890,752	3840,82
891,131	3805,71
891,511	3775,28
891,89	3866,56
892,27	3681,66
892,649	3693,37
893,029	3730,81
893,408	3730,81
893,787	3714,43
894,167	3679,32
894,546	3782,31
894,925	3684
895,304	3721,45
895,683	3695,71
896,062	3676,98
896,441	3625,49
896,819	3641,87
897,198	3595,06
897,577	3588,04
897,955	3602,08
898,334	3538,89
898,712	3517,83
899,091	3452,29
899,469	3506,12
899,848	3433,57
900,226	3527,19
900,604	3485,06
900,982	3456,97
901,36	3463,99
901,738	3447,61
902,116	3396,12
902,494	3463,99
902,872	3454,63
903,25	3480,38
903,628	3445,27
904,005	3438,25
904,383	3442,93
904,76	3438,25
905,138	3485,06
905,515	3456,97
905,893	3515,48
906,27	3475,7
906,647	3440,59
907,024	3389,1
907,402	3328,24
907,779	3454,63
908,156	3403,14
908,533	3384,41
908,91	3269,73
909,286	3426,54
909,663	3363,35
910,04	3337,6
910,417	3435,91
910,793	3318,88
911,17	3358,67
911,546	3403,14
911,923	3281,43
912,299	3377,39
912,675	3384,41
913,051	3283,77
913,428	3300,16
913,804	3389,1
914,18	3307,18
914,556	3403,14
914,932	3353,99
915,308	3351,65
915,683	3335,26
916,059	3286,11
916,435	3295,47
916,811	3384,41
917,186	3368,03
917,562	3332,92
917,937	3382,07
918,313	3363,35
918,688	3309,52
919,063	3344,63
919,438	3302,5
919,814	3267,39
920,189	3272,07
920,564	3300,16
920,939	3309,52
921,314	3218,24
921,689	3321,22
922,063	3267,39
922,438	3304,84
922,813	3384,41
923,187	3377,39
923,562	3386,76
923,936	3335,26
924,311	3255,69
924,685	3290,79
925,06	3344,63
925,434	3269,73
925,808	3328,24
926,182	3335,26
926,556	3239,3
926,93	3211,21
927,304	3262,71
927,678	3286,11
928,052	3295,47
928,426	3260,37
928,8	3302,5
929,173	3229,94
929,547	3199,51
929,92	3274,41
930,294	3201,85
930,667	3288,45
931,041	3208,87
931,414	3185,47
931,787	3222,92
932,161	3232,28
932,534	3141
932,907	3208,87
933,28	3159,72
933,653	3145,68
934,026	3159,72
934,398	3197,17
934,771	3190,15
935,144	3173,77
935,517	3157,38
935,889	3047,38
936,262	3169,09
936,634	3110,57
937,007	3119,93
937,379	3197,17
937,751	3183,13
938,123	3112,91
938,496	3122,27
938,868	3089,51
939,24	3122,27
939,612	3190,15
939,984	3197,17
940,355	3108,23
940,727	3073,12
941,099	3080,14
941,471	3073,12
941,842	3117,59
942,214	3105,89
942,585	3056,74
942,957	3091,85
943,328	3098,87
943,7	3063,76
944,071	3124,62
944,442	3136,32
944,813	3094,19
945,184	3129,3
945,555	3103,55
945,926	3152,7
946,297	3091,85
946,668	3084,83
947,039	3112,91
947,409	3169,09
947,78	3143,34
948,151	3042,7
948,521	3108,23
948,892	3117,59
949,262	3117,59
949,633	3105,89
950,003	3068,44
950,373	3045,04
950,743	3063,76
951,113	3133,98
951,483	3091,85
951,853	3157,38
952,223	3089,51
952,593	3094,19
952,963	3129,3
953,333	3033,33
953,702	3089,51
954,072	3105,89
954,442	3094,19
954,811	3084,83
955,181	3115,25
955,55	3138,66
955,919	3124,62
956,289	3136,32
956,658	3164,4
957,027	3091,85
957,396	3075,46
957,765	3045,04
958,134	3073,12
958,503	3133,98
958,872	3080,14
959,24	3028,65
959,609	3122,27
959,978	3150,36
960,346	3185,47
960,715	3148,02
961,083	3150,36
961,452	3056,74
961,82	3108,23
962,188	3117,59
962,557	3145,68
962,925	3080,14
963,293	3084,83
963,661	3157,38
964,029	3124,62
964,397	3148,02
964,765	3199,51
965,133	3108,23
965,5	3211,21
965,868	3208,87
966,236	3075,46
966,603	3133,98
966,971	3162,06
967,338	3138,66
967,706	3133,98
968,073	3108,23
968,44	3166,74
968,807	3110,57
969,174	3159,72
969,542	3148,02
969,909	3115,25
970,275	3145,68
970,642	3145,68
971,009	3150,36
971,376	3145,68
971,743	3096,53
972,109	3194,83
972,476	3110,57
972,842	3126,96
973,209	3148,02
973,575	3077,8
973,942	3094,19
974,308	3155,04
974,674	3091,85
975,04	3178,45
975,406	3138,66
975,772	3112,91
976,138	3129,3
976,504	3150,36
976,87	3089,51
977,236	3117,59
977,602	3169,09
977,967	3136,32
978,333	3117,59
978,698	3180,79
979,064	3068,44
979,429	3141
979,795	3119,93
980,16	3091,85
980,525	3049,72
980,89	3063,76
981,255	3122,27
981,621	3108,23
981,986	3164,4
982,35	3124,62
982,715	3126,96
983,08	3150,36
983,445	3143,34
983,81	3101,21
984,174	3138,66
984,539	3138,66
984,903	3052,06
985,268	3133,98
985,632	3141
985,996	3103,55
986,361	3084,83
986,725	3105,89
987,089	3119,93
987,453	3126,96
987,817	3108,23
988,181	3023,97
988,545	3040,36
988,909	3103,55
989,272	3138,66
989,636	3035,67
990	3133,98
990,363	3133,98
990,727	3122,27
991,09	3108,23
991,454	3169,09
991,817	3105,89
992,18	3138,66
992,543	3070,78
992,907	3059,08
993,27	3089,51
993,633	3082,49
993,996	3136,32
994,359	3030,99
994,721	3096,53
995,084	3091,85
995,447	3080,14
995,81	3166,74
996,172	3171,43
996,535	3091,85
996,897	3126,96
997,259	3049,72
997,622	3173,77
997,984	3105,89
998,346	3042,7
998,708	3101,21
999,071	3110,57
999,433	3162,06
999,795	3105,89
1000,156	3087,17
1000,518	3080,14
1000,88	3084,83
1001,242	3096,53
1001,603	3096,53
1001,965	3082,49
1002,327	3082,49
1002,688	3052,06
1003,049	3105,89
1003,411	3054,4
1003,772	3098,87
1004,133	3098,87
1004,495	3143,34
1004,856	3115,25
1005,217	3112,91
1005,578	3030,99
1005,939	3073,12
1006,299	3148,02
1006,66	3040,36
1007,021	3070,78
1007,382	3129,3
1007,742	3014,61
1008,103	3061,42
1008,463	3073,12
1008,824	2984,18
1009,184	3112,91
1009,544	3073,12
1009,904	3063,76
1010,265	3108,23
1010,625	3166,74
1010,985	3042,7
1011,345	3084,83
1011,705	3094,19
1012,065	3054,4
1012,424	3061,42
1012,784	3054,4
1013,144	3061,42
1013,503	3150,36
1013,863	3014,61
1014,222	3035,67
1014,582	3047,38
1014,941	3059,08
1015,3	3103,55
1015,66	3119,93
1016,019	3150,36
1016,378	3075,46
1016,737	3101,21
1017,096	3033,33
1017,455	3103,55
1017,814	3042,7
1018,173	3108,23
1018,531	3038,02
1018,89	3002,91
1019,249	3070,78
1019,607	3073,12
1019,966	3087,17
1020,324	3033,33
1020,682	3035,67
1021,041	3068,44
1021,399	3052,06
1021,757	3068,44
1022,115	3002,91
1022,473	3038,02
1022,831	3073,12
1023,189	3129,3
1023,547	3082,49
1023,905	3115,25
1024,263	3009,93
1024,62	3084,83
1024,978	3108,23
1025,335	3056,74
1025,693	3040,36
1026,05	3103,55
1026,408	3075,46
1026,765	3026,31
1027,122	3000,57
1027,479	3091,85
1027,837	3075,46
1028,194	2981,84
1028,551	3019,29
1028,908	3066,1
1029,264	3009,93
1029,621	3070,78
1029,978	3094,19
1030,335	3080,14
1030,691	3042,7
1031,048	3061,42
1031,404	3026,31
1031,761	2958,44
1032,117	3026,31
1032,473	3007,59
1032,83	3082,49
1033,186	3047,38
1033,542	3021,63
1033,898	3023,97
1034,254	3038,02
1034,61	3038,02
1034,966	3038,02
